,AccX[m/s^2],AccY[m/s^2],AccZ[m/s^2],label
0,9.074508999999999,-1.9462891,-0.36802673,1
1,8.911713,-2.2671203999999996,-0.11663818,1
2,8.972763,-2.4538574,-0.21958923,1
3,8.930862,-2.3868256000000003,-0.29620359999999996,1
4,8.769257000000001,-2.3940125,-0.30697632,1
5,8.690247,-2.1019134999999998,-0.63616943,1
6,8.502303999999999,-2.5256958,-0.6110382,1
7,8.710602,-2.6190643,-0.7858124,1
8,9.017059,-2.3461304,-0.7893982,1
9,9.357025,-2.0360718,-0.9546051,1
10,9.3893585,-1.8193970000000002,-0.8971405000000001,1
11,9.339081,-1.7715148999999997,-1.4118958000000001,1
12,8.915298,-1.661377,-1.9553832999999998,1
13,8.5849,-1.4435120000000001,-1.9625702,1
14,8.301193,-1.0400848,-1.6010437,1
15,8.778824,-1.0831909,-0.73672485,1
16,9.289992999999999,0.2348175,-1.188034,1
17,9.452805,0.61550903,-1.9146729,1
18,9.4133,0.8405609,-2.373169,1
19,9.361816000000001,0.6538086,-2.1756439999999997,1
20,8.904525999999999,0.33657837,-2.2798004,1
21,8.138382,2.4362946,-1.4430237,1
22,8.280838000000001,1.121872,-2.0870667000000003,1
23,8.489136,1.3205871999999999,-2.6999817000000004,1
24,9.345061999999999,1.6916962,-2.9298248,1
25,9.536591,1.3062286,-2.55513,1
26,10.429625999999999,1.4702301000000002,-2.2953491,1
27,10.806716999999999,2.4207306,-2.3169098,1
28,10.944382000000001,2.7367706000000003,-1.7710266,1
29,9.608414,1.2583466,-1.8464508000000002,1
30,8.481949,0.57121277,-1.7494811999999997,1
31,8.605255,0.25517273,-1.6201934999999998,1
32,7.9121246,1.1446228,-1.8368683000000001,1
33,7.9815674,2.3644714,-1.3388672,1
34,8.595673,2.545227,-2.270218,1
35,8.854248,1.9382935000000001,-1.0072784,1
36,8.5849,0.7531738,-1.4334412,1
37,7.842697,1.1422272,-1.1210022,1
38,7.669113,1.5755768,-1.7243346999999998,1
39,8.753693,2.1729279,-2.3911284999999998,1
40,8.066559,2.1489868,-2.6676482999999998,1
41,9.407303,1.027298,-3.519989,1
42,11.089233,0.9854126,-3.3368377999999996,1
43,10.574478,1.279892,-3.370346,1
44,10.233307,0.7866820999999999,-3.5235748,1
45,10.651093,0.8441466999999999,-3.4469604,1
46,10.011841,0.5257263000000001,-4.0874176,1
47,7.5099029999999996,0.36650085,-3.6480865,1
48,7.354278599999999,0.33657837,-4.4118347,1
49,9.440826,-2.2563477,-5.666397,1
50,10.009445,-2.7279967999999997,-4.651244999999999,1
51,9.895721,-2.5125275,-3.5882263,1
52,8.872208,-2.4766082999999997,-4.1101684999999994,1
53,7.628417999999999,-1.3357697,-4.365143,1
54,6.614471400000001,-1.5979309,-2.840042,1
55,6.729400599999999,-0.89404297,-2.389923,1
56,7.321960400000001,-1.0257263,-2.6748352000000004,1
57,9.445618,-1.4674530000000001,-3.7797546000000004,1
58,8.671097,-1.6949005000000001,-3.0986176,1
59,7.9995117,-1.194519,-3.0626984,1
60,8.733336999999999,-0.55166626,-2.6880034999999998,1
61,9.427658000000001,-0.5253296,-2.9465790000000003,1
62,10.160278,-1.0269165,-3.2829589999999995,1
63,10.283585,-0.9586792,-3.2051543999999996,1
64,10.133942,-0.7420044,-2.7634277000000003,1
65,9.12001,-0.9084015,-2.8101043999999997,1
66,8.659119,-0.5780029000000001,-2.389923,1
67,8.122817999999999,-0.35653687,-2.567093,1
68,8.054580999999999,-0.8569336,-2.1576842999999997,1
69,8.405334,-0.36611938,-2.2690277,1
70,8.303574000000001,-0.5672302,-2.5599213,1
71,7.6667175,-0.78630066,-2.551529,1
72,8.076126,-0.91319275,-2.2187347,1
73,7.793609599999999,-0.581604,-2.0200195,1
74,9.249298,-0.44992065,-2.9238281,1
75,9.184647,-1.6949005000000001,-1.5651245,1
76,8.613632,-1.5967407,-2.1732482999999996,1
77,9.06015,-2.1952972,-1.8883362000000001,1
78,8.869812,-2.119873,-2.4461975,1
79,8.049789,-1.8050384999999998,-2.55513,1
80,7.4560394,-1.7128601000000003,-2.6401215000000002,1
81,6.888611,-1.3944244,-2.4485931,1
82,6.919739,-1.6829376,-2.5802612000000003,1
83,7.3506927,-2.183319,-2.8184967,1
84,7.9228973,-2.3509216,-2.8986970000000003,1
85,7.960006699999999,-2.2359923999999998,-4.3902893,1
86,8.226958999999999,-1.9403076000000001,-5.353943,1
87,8.627991,-2.2419738999999996,-4.7326508,1
88,8.789597,-3.0583953999999998,-3.8240510000000003,1
89,9.768829,-2.2348022000000003,-5.5263367,1
90,9.761642,-0.1925354,-9.462402,1
91,10.241684,1.7335968000000002,-11.475922,1
92,13.009383999999999,4.3935547,-1.9350281000000003,1
93,10.584061,6.328064,-4.2657776,1
94,10.439209,6.431015,-4.94693,1
95,6.707839999999999,2.718811,-4.5291443,1
96,5.5622253,0.48143005,-4.537521400000001,1
97,5.458069,-0.4056244,-4.622528,1
98,6.209854,-0.46667479999999995,-4.3842926,1
99,6.5558167,0.088775635,-4.518371599999999,1
100,6.645599400000001,0.16059875,-4.4393616,1
101,6.0769806,-0.36253357,-3.6983642999999997,1
102,5.2042847000000005,-1.3633118,-2.9477692,1
103,4.420181299999999,-2.265915,-2.7310944,1
104,4.123306299999999,-2.590332,-2.939392,1
105,4.2813263,-2.3389435,-2.9513702,1
106,4.3651123,-1.6362457000000001,-3.2290955,1
107,3.3140717000000004,-1.5416718,-6.0398865,1
108,4.2082977,-0.8126373,-6.1572113,1
109,6.970016499999999,0.6573944,-3.9078522000000007,1
110,8.681869500000001,1.8748474,-3.8444061,1
111,8.42688,2.4374847,-5.2976837,1
112,7.282455400000001,1.6677551,-5.2330475,1
113,6.3858185,0.028915405,-4.603363,1
114,6.0638123,-1.562027,-4.554291,1
115,7.535049400000001,-2.6873016,-4.2370605,1
116,9.258865,-3.27388,-4.4776764,1
117,10.175842,-2.8141937,-4.808075,1
118,10.788757,-2.4730225,-5.1612089999999995,1
119,10.056137,-2.0504456,-5.6280823,1
120,8.56575,-1.5811768,-4.804474,1
121,8.639969,-1.2555695,-4.1759949999999995,1
122,9.206192,-1.8002471999999998,-3.8851013,1
123,9.425262,-2.7172241,-4.3483887,1
124,9.843048,-2.1952972,-5.541900599999999,1
125,10.076492,-0.6354675,-5.854339599999999,1
126,10.236892999999998,-0.37210083,-5.3048706,1
127,10.148315,-1.5285034,-4.575836,1
128,10.271622,-2.1809235,-4.4118347,1
129,11.784744,-1.8648987000000001,-3.7869415,1
130,13.449921,-1.3728790000000002,-3.685196,1
131,12.8094635,-1.0963593,-3.0830536,1
132,12.712508999999999,-1.8960113999999997,-4.4992220000000005,1
133,13.615112,-1.5536499,-3.8503876000000004,1
134,14.414779999999999,-1.0101624,-1.9039001,1
135,13.470276,-1.2232513,-1.2861938,1
136,11.953536999999999,-0.9431305,-1.282608,1
137,9.561736999999999,-0.1877594,-0.5894928,1
138,7.008316000000001,0.35453796,0.69859314,1
139,5.48201,0.5161438,1.3881226,1
140,5.0654297,0.115112305,1.0397644,1
141,5.9452972,-0.49661255,0.14193726,1
142,7.476379400000001,-0.9143982,-0.17289734,1
143,9.009872,-0.6534270999999999,-0.456604,1
144,10.4092865,-0.17098999,-0.6373749,1
145,11.219711,0.299469,-0.88038635,1
146,11.502228,0.42156982,-0.5236510999999999,1
147,11.265213000000001,0.23362732,-0.2794342,1
148,9.790375,0.37249756,0.004272461,1
149,8.569336,0.8226013000000001,0.28199768,1
150,7.7972107,1.0596313,0.54776,1
151,7.519485499999999,0.86450195,0.39453125,1
152,7.8606567,0.6274719,-0.04360962,1
153,8.401749,0.45149229999999996,-0.17408752,1
154,8.794388,0.33657837,-0.49371338,1
155,8.896149000000001,0.3796692,-0.535614,1
156,8.938049000000001,0.5233306999999999,-0.43386840000000004,1
157,8.930862,1.0237121999999999,-0.1309967,1
158,9.017059,1.4510802999999999,-0.21240234,1
159,9.133179,1.7312011999999999,-0.5056915,1
160,9.195419000000001,1.6593779999999998,-0.91270447,1
161,9.558136,1.3229828000000001,-1.2335358,1
162,9.755661,0.9710388000000001,-1.3424683000000002,1
163,9.665878,0.42037964,-1.6549072,1
164,9.542587,-0.0021972656,-1.7375029999999998,1
165,9.663483,-0.4834442,-2.2462769000000002,1
166,9.914871,-0.9981841999999999,-2.3983002,1
167,10.471527,-1.0604401,-2.1768494,1
168,10.408081,-0.5935669,-1.6956023999999998,1
169,9.774811,-0.23564148,-1.6477203,1
170,9.157119999999999,-0.61990356,-1.5962524,1
171,9.128387,-0.45471190000000006,-1.8440552,1
172,9.390549,-0.0440979,-1.7339171999999998,1
173,9.329498,0.42515564,-1.7961731,1
174,9.069733,0.8022461,-1.9685516,1
175,9.191833500000001,0.7866820999999999,-1.9170685,1
176,9.434845,0.23841858,-1.8248901000000002,1
177,9.125992,-0.26795959999999996,-1.6968078999999998,1
178,8.600464,-0.37091064,-1.2502898999999998,1
179,9.371399,-0.2715454,-1.1832428,1
180,9.685027999999999,0.057647705,-1.456192,1
181,9.372589,0.27313232,-1.7123718,1
182,9.318726,-0.11592102,-1.5483704,1
183,9.440826,-0.9934082000000001,-1.5567474,1
184,9.311539,-1.4303436,-2.286972,1
185,8.90213,-1.2232513,-2.8556060000000003,1
186,9.002686,-1.2411957,-3.2578278,1
187,9.054169,-1.2567596,-3.6313171000000004,1
188,9.522232,-0.8856659,-4.377121,1
189,9.592865,-0.42118835,-4.673996,1
190,9.230133,0.714859,-3.95813,1
191,8.707001,1.4115753,-2.5994262999999997,1
192,8.156342,1.3624878,-1.9182738999999998,1
193,7.711014,0.5257263000000001,-2.1265717,1
194,7.890579,0.5053711,-2.2965546000000003,1
195,8.112045,0.8381653,-2.120575,1
196,9.058945,1.3241882,-1.5028687,1
197,9.230133,1.2870788999999998,-1.3125305,1
198,9.365402,0.59994507,-1.2466888,1
199,9.249298,0.48501587,-1.1760712,1
200,9.345061999999999,0.7040863,-0.88157654,1
201,9.020645,1.1577911,-1.2119751,1
202,8.887772,1.1553955,-1.2179718000000002,1
203,9.063736,1.0596313,-0.95339966,1
204,8.894943,0.81781006,-0.6230011,1
205,8.813553,0.15580750000000002,-1.2909851,1
206,8.438858,-0.08958435,-1.1329651,1
207,8.511871000000001,0.21687317,-0.55955505,1
208,8.958389,0.5460663,-0.7786255,1
209,9.181061,0.6382445999999999,-1.6908264,1
210,9.289992999999999,0.22644043,-2.9034882,1
211,9.900513,0.56044006,-4.7949066,1
212,10.088455,-0.6151123000000001,-1.5208282,1
213,8.744110000000001,-1.7870789,0.3885498,1
214,8.294006,-1.6721648999999998,-0.7199707,1
215,8.811157000000001,-0.69532776,-1.5220337,1
216,8.958389,0.1330719,-0.6481475999999999,1
217,8.958389,0.3796692,-0.08909607,1
218,8.893753,-0.06564331,-0.25430298,1
219,9.426468,-0.92996216,-0.9629822,1
220,11.357391,-1.4973755,-2.278595,1
221,12.019378999999999,-2.293457,-3.3081055,1
222,10.568497,-1.3704834,-3.3679657,1
223,8.746506,-0.8605193999999999,-4.0407257,1
224,8.389770500000001,-0.35295105,-5.266556,1
225,9.831085,-0.10395813,-3.9389800000000004,1
226,9.871780000000001,0.73161316,-3.753418,1
227,7.2621,1.0943451000000002,-3.9856567000000003,1
228,6.869461,0.51135254,-2.6125946,1
229,6.791641,0.11152649,-2.642517,1
230,7.2309722999999995,0.6430359,-2.278595,1
231,8.357452,1.0129395,-2.1229706000000004,1
232,10.360199,0.7400055,-2.0188293,1
233,11.402878,-0.2966919,-0.5248413000000001,1
234,10.619964999999999,-1.0652313,-0.36083984,1
235,10.18782,-1.2507781999999998,-0.55477905,1
236,10.56012,-1.1538086,-0.47816467,1
237,10.752853,-0.783905,-0.74391174,1
238,9.9436035,-0.16859436,-0.8241272,1
239,7.810378999999999,0.27192688,-0.5799103,1
240,6.899383500000001,-0.29908752,-0.43266296,1
241,7.6906586,-0.5851898,-0.7463074000000001,1
242,9.548569,-0.090789795,-0.7295531999999999,1
243,10.744475999999999,0.06842041,-0.3548584,1
244,10.030991,-0.107543945,-1.3328857,1
245,9.555756,-0.19374084,-1.5615386999999998,1
246,9.473145,0.019348145,-1.1317749,1
247,8.693832,0.23721313,-1.2909851,1
248,8.550186,0.338974,-1.0312195,1
249,9.550964,0.35333252,-0.6194153,1
250,9.170288000000001,0.5532531999999999,-0.33810425,1
251,8.550186,0.17497253,-0.44343567,1
252,8.302383,-0.41281128,-0.5631560999999999,1
253,9.418076,-0.59954834,-0.5499878,1
254,9.92804,-0.14225769,-0.79060364,1
255,9.391739,0.15940857,-1.0862885,1
256,8.758484,0.30784607,-0.8312988000000001,1
257,9.072113,0.30903625,-0.6397705,1
258,9.329498,0.18693542,-1.2694397,1
259,9.600037,0.112716675,-1.8763733,1
260,9.972336,-0.14465332,-2.3157042999999997,1
261,10.485901,-0.55526733,-2.2438812,1
262,10.457169,-1.5021666999999999,-2.6473082999999997,1
263,10.200989,-2.6980743,-3.44458,1
264,10.648697,-3.2774657999999994,-3.8851013,1
265,11.35379,-2.6178741000000003,-4.322051999999999,1
266,10.417664,-0.07762146,-4.5770264,1
267,7.199859599999999,2.2256012000000003,-3.2985230000000003,1
268,3.90065,1.2332001,-2.2127533,1
269,3.7174834999999997,-1.4267578,-1.8967285,1
270,5.636444,-3.507309,-2.389923,1
271,7.545822,-3.404358,-3.073471,1
272,7.738556,-1.6158905000000001,-2.709549,1
273,6.628830000000001,-0.47865295,-2.4330292,1
274,5.958465599999999,-0.41160583,-1.7123718,1
275,6.919739,-0.3481598,-0.8372803,1
276,7.952835,0.5448761,-1.3472594999999998,1
277,10.3697815,1.0691986,-2.5168152000000004,1
278,12.173813,2.0280761999999997,-2.796936,1
279,11.850586,1.2667236000000002,-4.2933197,1
280,13.345764,-0.43554688,-4.9924316,1
281,14.831375,-2.6669464,-4.028763,1
282,15.179732999999999,-3.7862396,-4.226287999999999,1
283,12.197754,-3.562378,-3.5223845999999996,1
284,8.191055,-2.0684052,-1.5519562,1
285,6.588135,-0.62350464,0.48670959999999996,1
286,5.9117737,0.65979004,0.35861206,1
287,4.7362212999999995,1.7443695,0.09526062,1
288,5.486801,1.3576965,0.027023315,1
289,8.027054,0.7328186,-0.927063,1
290,10.654694000000001,0.5771941999999999,-1.9230652,1
291,12.669402999999999,-0.41639709999999996,-1.8596191000000002,1
292,12.046921000000001,-1.5165405,-0.6708831999999999,1
293,10.702575999999999,-1.5440673999999999,0.41488647,1
294,9.339081,-1.601532,0.99069214,1
295,7.949234,-1.1562042,1.2815857,1
296,7.9815674,-0.41760254,1.0122375,1
297,8.777633999999999,0.0061798096,0.69140625,1
298,8.728546000000001,0.30545044,0.32748413,1
299,8.371811,0.38565063,0.16229248,1
300,8.4843445,0.18814087,0.20179749,1
301,9.0733185,-0.27275085,0.50704956,1
302,9.428848,-1.0137482,0.8805542,1
303,9.346252,-1.625473,1.1331328999999999,1
304,9.475539999999999,-1.6158905000000001,1.2097473,1
305,9.771225,-1.2184601000000002,0.99427795,1
306,9.700592,-0.6917267,0.75845337,1
307,9.537796,-0.17936707,0.5944519,1
308,9.170288000000001,-0.02015686,0.42086792,1
309,8.932053,-0.14465332,0.5274048000000001,1
310,8.918884,-0.19493103,0.60162354,1
311,9.172684,-0.03691101,0.6207885999999999,1
312,9.384567,0.2707367,1.0397644,1
313,8.789597,-0.012969971,0.7141571,1
314,9.379776,-1.2639465,0.53578186,1
315,9.998672500000001,-1.4470978,0.28320313,1
316,10.189011,-1.0065765,-0.3476715,1
317,9.838257,-0.6725769,-0.84446716,1
318,9.380966,-0.35295105,-0.9007415999999999,1
319,9.249298,-0.3002777,-1.164093,1
320,9.3498535,-0.10874939,-1.337677,1
321,9.462372,0.0025787354,-1.3149261,1
322,9.668274,-0.40203857,-1.2131805,1
323,9.578491,-0.30387878,-0.8372803,1
324,9.3546295,-0.51934814,0.12159729,1
325,9.391739,-0.46427917,0.13595581,1
326,8.898544000000001,-0.7420044,0.30593872,1
327,9.421677,-0.9862213,-0.24232483,1
328,9.5677185,-0.9503021,-0.20521545,1
329,9.364212,-0.42358398,-0.64694214,1
330,9.136764999999999,-0.49182129999999996,-0.5248413000000001,1
331,9.469559,-1.0628357,-0.7558899,1
332,9.585678,-1.3118286,-0.9737549000000001,1
333,9.694611,-1.2244415000000002,-0.9222870000000001,1
334,9.303162,-0.83418274,-0.55596924,1
335,8.64476,-0.5708313,0.08807373,1
336,8.60405,-0.55766296,0.18144226,1
337,8.797989,-0.5600586,0.20059204,1
338,9.131973,-0.65701294,0.31791687,1
339,9.668274,-0.7228545999999999,-0.121414185,1
340,9.583282,-0.6498413000000001,-0.23275757,1
341,9.760452,-0.71447754,-0.0005187988,1
342,9.2313385,-0.8688965,0.17785645,1
343,9.003891000000001,-1.0951538,0.16708374,1
344,8.876999,-1.2986603,0.12637329,1
345,8.915298,-1.4327393,0.44360352,1
346,8.716583,-1.2711333999999999,0.38494873,1
347,9.209793,-1.067627,0.40530396,1
348,9.92804,-1.1059265,0.27243042,1
349,10.321899,-1.0221252,0.27243042,1
350,9.823898,-0.7192688,0.0054779053000000005,1
351,9.09845,-0.16740417,0.25805664,1
352,9.035003999999999,0.033706665,0.37417603,1
353,9.102051,-0.057266235,0.33227540000000005,1
354,9.925659,-0.35774229999999996,0.77401733,1
355,9.73172,-0.7731323,0.6746521,1
356,9.778412,-0.9658661000000001,0.78718567,1
357,9.979523,-0.61750793,0.26524353,1
358,9.475539999999999,0.24440002,0.16947937,1
359,8.667496,0.54008484,0.37417603,1
360,7.956421000000001,0.6346588000000001,0.86380005,1
361,8.043808,0.59994507,1.2803802,1
362,8.876999,0.42156982,1.2241211,1
363,9.628769,-0.12550354,1.2959441999999999,1
364,9.827484,-0.660614,0.7033844,1
365,9.839462,-0.9934082000000001,0.8949127,1
366,9.197815,-1.1681823999999998,1.409668,1
367,8.944030999999999,-1.3417511,1.3797455,1
368,9.025436000000001,-1.4147797,1.3115082,1
369,9.444412,-1.4099883999999998,1.3294678,1
370,9.638351,-1.313034,1.2504578000000002,1
371,9.418076,-0.99938965,1.2289124,1
372,9.216965,-0.6821594,1.3629761,1
373,9.145142,-0.47265625,1.3282623,1
374,9.455185,-0.30267334,1.2097473,1
375,9.291183,-0.064453125,0.9715271000000001,1
376,8.540604,0.06842041,0.30235290000000004,1
377,9.322311000000001,-0.109939575,1.7089386000000002,1
378,9.467163000000001,0.2803192,2.0740662,1
379,8.363434,0.01574707,1.5569153,1
380,8.497513,0.32101440000000003,1.3474274,1
381,9.811935,1.0201263,1.8106995,1
382,10.727707,1.1290588,1.8035126,1
383,9.483917,0.28509520000000005,1.1068115,1
384,8.402939,-0.49661255,1.0014648000000002,1
385,8.859039,-1.0783996999999999,1.6933898999999997,1
386,9.3103485,-0.8138428000000001,2.125534,1
387,9.109222,-0.87968445,2.10997,1
388,8.812347,-1.1143036,1.6849976000000002,1
389,8.701019,-1.115509,1.6790161,1
390,8.938049000000001,-0.8892517,1.9962463,1
391,8.890167,-0.9084015,2.0489197,1
392,8.562149,-0.89404297,1.7400665000000002,1
393,8.460403,-0.40322876,1.7137299,1
394,8.797989,0.26594543,2.0572968,1
395,8.537018,0.45269775,2.0980072,1
396,8.657928,0.12588501,2.1231383999999998,1
397,8.955994,-0.47505188,2.0166016,1
398,9.342667,-0.94192505,1.7017669999999998,1
399,9.589264,-0.8282013,1.4467773000000002,1
400,9.777206,-0.43196106,1.239685,1
401,9.872986000000001,-0.30148315,1.212143,1
402,9.640747,-0.16261292,1.097229,1
403,9.175064,0.30305479999999996,1.2720032,1
404,8.930862,0.6214905,1.5389556999999998,1
405,8.944030999999999,0.4072113,1.4790955,1
406,9.33429,-0.093185425,1.4455871999999999,1
407,9.565323,-0.29071045,1.2013702,1
408,9.571304,-0.34576416,0.82069397,1
409,9.121201,-0.22964478,0.71655273,1
410,8.910507,-0.29309082,0.73091125,1
411,9.133179,-0.34936523,0.7979584,1
412,9.458786,-0.14704895,0.83506775,1
413,9.546173,0.09596252400000001,0.74768066,1
414,9.534195,0.15940857,0.6961975,1
415,9.598846,0.010971068999999998,0.7512665,1
416,9.698196000000001,-0.25479126,0.8123169,1
417,9.518631,-0.4092102,0.74768066,1
418,9.239716,-0.3984375,0.71894836,1
419,9.183456,-0.17698670000000002,1.0026549999999999,1
420,9.295975,0.040893555,1.1080017,1
421,9.236130000000001,0.03012085,1.1319427,1
422,9.269638,-0.12908936,0.86499023,1
423,9.248092999999999,-0.13986206,0.9308318999999999,1
424,9.400131,-0.17219543,1.3629761,1
425,9.49231,-0.3182373,1.0673065000000002,1
426,9.011063,-0.25958252,0.6638794,1
427,9.145142,-0.23564148,1.231308,1
428,9.543777,-0.6031494000000001,1.0325775,1
429,9.355835,-0.71687317,0.47712708,1
430,9.199005,-0.542099,0.65190125,1
431,9.329498,-0.37449646,1.1798248,1
432,8.959595,-0.23324585,1.2923584,1
433,8.718979,-0.37928772,1.0158234,1
434,8.861435,-0.3002777,0.92485046,1
435,9.25528,-0.42956543,1.0984192,1
436,9.674255,-0.5504760999999999,1.3007355,1
437,10.173447,-0.80784607,1.7197266,1
438,9.932831,-1.0939636000000001,1.8526001,1
439,9.438431,-1.2052916999999999,1.5784607,1
440,8.726150500000001,-0.69532776,1.7687988000000001,1
441,8.76207,-0.20930481,2.4032592999999998,1
442,8.972763,-0.21647644,2.3553772,1
443,9.011063,-0.47027588,2.1973572,1
444,8.780028999999999,-0.917984,1.9759064,1
445,9.048172000000001,-1.3297881999999999,2.1770172000000003,1
446,9.042191,-0.6689911000000001,2.4188232000000003,1
447,8.624405,-0.27754209999999996,2.540924,1
448,8.601654,-0.38287354,2.580429,1
449,8.853058,-0.59117126,2.3936919999999997,1
450,8.880585,-0.31225586,2.3122863999999996,1
451,8.90094,0.15222168,2.3434142999999996,1
452,8.860229499999999,0.44911194,2.2332764,1
453,9.032608,0.42636108,2.0596924,1
454,9.149933,0.42636108,1.8765411,1
455,9.234924000000001,0.43234253,1.8813324,1
456,9.307953,0.5532531999999999,2.002243,1
457,9.245697,0.5257263000000001,1.9615326000000002,1
458,9.064941000000001,0.5305023,1.9136505000000001,1
459,8.994308,0.44671629999999996,1.7268982,1
460,9.087677000000001,0.36531067,1.6873932,1
461,9.21936,0.24559021,1.6275482,1
462,9.29837,0.07321167,1.5557098,1
463,9.207397,0.040893555,1.5222015,1
464,9.145142,-0.00579834,1.5892334,1
465,9.199005,-0.033325195,1.6143798999999999,1
466,9.17746,-0.050079346,1.6095886000000001,1
467,9.218169999999999,-0.08241272,1.5617065,1
468,9.293579,-0.19853210000000002,1.4647369,1
469,9.25647,-0.23085022,1.3977051,1
470,9.278015,-0.18655396,1.622757,1
471,9.202606,-0.210495,1.6742249,1
472,9.200211,-0.28710938,1.7891540000000001,1
473,9.195419000000001,-0.39245605,1.780777,1
474,9.005081,-0.43315125,1.8813324,1
475,8.972763,-0.45710754,2.0572968,1
476,8.989517,-0.5049895999999999,2.0968018,1
477,8.969161999999999,-0.5349121,2.2212982000000006,1
478,8.930862,-0.56243896,2.228485,1
479,9.088882,-0.57681274,2.1817932,1
480,9.091277999999999,-0.47505188,2.0872345,1
481,9.070922999999999,-0.34217834,2.0010376,1
482,9.151123,-0.24880981,1.9735107,1
483,9.141556,-0.22366333,2.0549011000000004,1
484,9.115219,-0.25479126,2.165039,1
485,8.926071,-0.25958252,2.0549011000000004,1
486,8.996704,-0.32661438,2.0752563000000004,1
487,9.232529,-0.45829773,1.967514,1
488,9.169083,-0.43554688,1.7640076,1
489,9.045776,-0.47625732,1.5892334,1
490,9.181061,-0.5277251999999999,1.5138245000000001,1
491,9.3151245,-0.38647459999999995,1.5916290000000002,1
492,9.300766000000001,-0.25239563,1.6873932,1
493,9.207397,-0.107543945,1.8789368000000002,1
494,9.157119999999999,-0.109939575,1.9974518,1
495,9.094864,-0.13148499,1.9232330000000002,1
496,8.98114,-0.15065002,1.8621674,1
497,9.049377,-0.16619873,1.8956909,1
498,9.114014,-0.17817688,1.8418273999999997,1
499,9.152328500000001,-0.21768188,2.01062,1
500,9.215775,-0.22007751,2.0788574,1
501,9.189438,-0.27394104,2.0393524,1
502,9.085281,-0.26556396,1.9663238999999997,1
503,9.042191,-0.210495,1.8908996999999999,1
504,9.160706,-0.21647644,1.8945006999999998,1
505,9.091277999999999,-0.3541565,1.848999,1
506,9.076903999999999,-0.43675232,1.9124603,1
507,9.213379,-0.47265625,1.8071136000000003,1
508,9.214569000000001,-0.45350647,1.6885986000000002,1
509,9.148727000000001,-0.33499146,1.6083832,1
510,9.167892,-0.2212677,1.5880432,1
511,9.166687,-0.23683167,1.6179656999999998,1
512,9.199005,-0.27394104,1.5904388,1
513,9.185837,-0.28352356,1.504242,1
514,9.185837,-0.22486877,1.4898833999999999,1
515,9.234924000000001,-0.121917725,1.5054321000000002,1
516,9.266052,-0.06086731,1.5593108999999998,1
517,9.206192,-0.02494812,1.4850922,1
518,9.134369,0.05645752,1.5114288,1
519,9.104446000000001,0.0756073,1.4527588,1
520,9.136764999999999,0.12828064,1.3929138,1
521,9.154724,0.17497253,1.4372101000000002,1
522,9.151123,0.115112305,1.4755096,1
523,9.190628,0.105529785,1.4707184,1
524,9.175064,0.055252075,1.4803008999999998,1
525,9.17627,0.086380005,1.4779053,1
526,9.178664999999999,0.08039856,1.4683228000000002,1
527,9.173874,0.06602478,1.5138245000000001,1
528,9.190628,0.067230225,1.4431915000000002,1
529,9.208588,0.06124878,1.4288177,1
530,9.152328500000001,0.02532959,1.5054321000000002,1
531,9.224152,0.02053833,1.5485381999999999,1
532,9.239716,-0.03213501,1.4623413,1
533,9.121201,-0.04649353,1.4743195,1
534,9.157119999999999,-0.018966675,1.4922638000000001,1
535,9.236130000000001,-0.011779785,1.4372101000000002,1
536,9.183456,-0.0728302,1.4767151,1
537,9.175064,-0.12071228,1.5006561,1
538,9.17746,-0.114730835,1.5485381999999999,1
539,9.185837,-0.07043457,1.5126190000000002,1
540,9.183456,-0.05847168,1.5497284,1
541,9.134369,0.0049743652,1.4898833999999999,1
542,9.159514999999999,0.028915405,1.5078278,1
543,9.165497,0.0037841796999999997,1.5126190000000002,1
544,9.205002,-0.030929565,1.45755,1
545,9.218169999999999,-0.03930664,1.5329742,1
546,9.210983,-0.03213501,1.5497284,1
547,9.195419000000001,-0.00819397,1.5413513,1
548,9.195419000000001,0.02772522,1.5305786,1
549,9.184647,0.033706665,1.5425415,1
550,9.165497,0.06124878,1.5233917,1
551,9.153519000000001,0.08998108,1.5138245000000001,1
552,9.194229,0.06124878,1.5222015,1
553,9.152328500000001,0.036102295,1.5425415,1
554,9.133179,0.02532959,1.5030518,1
555,9.207397,0.036102295,1.4611511000000001,1
556,9.210983,0.098358154,1.5090332,1
557,9.208588,0.17376709,1.5233917,1
558,9.157119999999999,0.20968628,1.5377655000000001,1
559,9.151123,0.2240448,1.5485381999999999,1
560,9.154724,0.22045898,1.5329742,1
561,9.108032000000001,0.26715088,1.6047973999999998,1
562,9.199005,0.25277710000000003,1.5664978,1
563,9.239716,0.27432249999999997,1.5174103,1
564,9.170288000000001,0.28869629999999996,1.5006561,1
565,9.09845,0.27432249999999997,1.4755096,1
566,9.096069,0.25038147,1.5628966999999998,1
567,9.099655,0.24679565,1.5868378,1
568,9.161896,0.21208191,1.5892334,1
569,9.133179,0.23602295,1.6251526,1
570,9.07811,0.27432249999999997,1.6443023999999997,1
571,9.0793,0.2635498,1.6490936,1
572,9.082901,0.2695465,1.6574706999999997,1
573,9.117614999999999,0.1797638,1.7077484,1
574,9.151123,0.14025879,1.7831726000000003,1
575,9.160706,0.15461731,1.7592316000000003,1
576,9.115219,0.1797638,1.7496490000000002,1
577,9.066132000000001,0.17616272,1.7137299,1
578,9.127182000000001,0.14743042,1.6179656999999998,1
579,9.117614999999999,0.105529785,1.5449371,1
580,9.147537,0.098358154,1.418045,1
581,9.17746,0.11631775,1.4395905,1
582,9.2313385,0.076812744,1.4695281999999998,1
583,9.216965,-0.02015686,1.5090332,1
584,9.262466,-0.13986206,1.4755096,1
585,9.266052,-0.22007751,1.4826965,1
586,9.248092999999999,-0.24043274,1.4419861,1
587,9.263657,-0.18296814,1.4192505,1
588,9.257675,-0.16859436,1.4001006999999999,1
589,9.14035,-0.13388062,1.4647369,1
590,9.147537,-0.14346313,1.5317688,1
591,9.222961,-0.117126465,1.4695281999999998,1
592,9.194229,-0.14106749999999998,1.4587555,1
593,9.201400999999999,-0.16740417,1.5245971999999999,1
594,9.208588,-0.13269043,1.5952148000000002,1
595,9.205002,-0.1925354,1.6730346999999999,1
596,9.171478,-0.13867188,1.6909942999999998,1
597,9.134369,-0.083602905,1.7316895,1
598,9.116408999999999,-0.04170227,1.7233124,1
599,9.167892,-0.07641601599999999,1.5880432,1
600,9.181061,-0.026138306,1.5605011,1
601,9.175064,-0.02015686,1.5413513,1
602,9.160706,0.033706665,1.5389556999999998,1
603,9.188232000000001,0.031311035,1.5209961,1
604,9.196625,0.05166626,1.4587555,1
605,9.164291,0.07081604,1.4264374,1
606,9.190628,0.12709045,1.4647369,1
607,9.170288000000001,0.10913086,1.5114288,1
608,9.178664999999999,0.069625854,1.5293732,1
609,9.143951,0.08758545,1.5605011,1
610,9.15831,0.08279419,1.5688782,1
611,9.164291,0.04808044400000001,1.6047973999999998,1
612,9.15831,0.03251648,1.5952148000000002,1
613,9.153519000000001,0.014556885,1.5700836,1
614,9.159514999999999,-0.009384155,1.5605011,1
615,9.171478,0.014556885,1.5605011,1
616,9.147537,-0.0105896,1.5628966999999998,1
617,9.214569000000001,-0.012969971,1.5724791999999999,1
618,9.222961,-0.045303345,1.5413513,1
619,9.1128235,-0.047698975,1.552124,1
620,9.212173,-0.06324768,1.4886780000000002,1
621,9.182250999999999,0.026535034,1.4204407,1
622,9.121201,-0.03213501,1.4503784,1
623,9.164291,-0.052474976,1.5712738000000002,1
624,9.2313385,-0.08241272,1.6215515,1
625,9.2313385,-0.11114502,1.6490936,1
626,9.163101,-0.112335205,1.6742249,1
627,9.117614999999999,-0.07043457,1.6598663,1
628,9.170288000000001,-0.05847168,1.6790161,1
629,9.167892,-0.04170227,1.6203613000000001,1
630,9.146347,-0.06564331,1.6203613000000001,1
631,9.141556,-0.038116455,1.6107788,1
632,9.137955,-0.050079346,1.6478881999999997,1
633,9.185837,-0.016571045,1.5712738000000002,1
634,9.143951,-0.00819397,1.5916290000000002,1
635,9.179855,-0.012969971,1.6107788,1
636,9.175064,-0.02734375,1.5868378,1
637,9.194229,-0.018966675,1.5688782,1
638,9.189438,-0.074035645,1.5892334,1
639,9.149933,-0.04649353,1.5605011,1
640,9.141556,-0.06564331,1.6083832,1
641,9.151123,-0.04170227,1.5904388,1
642,9.157119999999999,-0.038116455,1.5964203000000001,1
643,9.208588,-0.05847168,1.6024017,1
644,9.224152,-0.057266235,1.5988159,1
645,9.220566,-0.05607605,1.5688782,1
646,9.201400999999999,-0.074035645,1.5186005,1
647,9.172684,-0.081207275,1.5054321000000002,1
648,9.212173,-0.07641601599999999,1.543747,1
649,9.169083,-0.057266235,1.5162201000000002,1
650,9.188232000000001,-0.023742676,1.5748749,1
651,9.222961,-0.0440979,1.5700836,1
652,9.184647,-0.090789795,1.4803008999999998,1
653,9.199005,-0.083602905,1.4012909,1
654,9.201400999999999,0.021743774,1.3079223999999998,1
655,9.187042,0.03491211,1.2444763,1
656,9.172684,0.050476074,1.2528534,1
657,9.172684,0.074417114,1.2971496999999999,1
658,9.143951,0.076812744,1.3510132,1
659,9.196625,0.040893555,1.3677673000000001,1
660,9.187042,0.0013885498,1.4288177,1
661,9.215775,-0.02255249,1.4144591999999998,1
662,9.160706,-0.0440979,1.4671326,1
663,9.190628,-0.00819397,1.4707184,1
664,9.169083,0.014556885,1.4060822,1
665,9.166687,0.055252075,1.3545989999999999,1
666,9.185837,0.07081604,1.2947540000000002,1
667,9.2313385,0.013366699,1.2839813,1
668,9.239716,-0.03691101,1.246872,1
669,9.264847,-0.08001709,1.2576447,1
670,9.232529,-0.117126465,1.2564392,1
671,9.216965,-0.14225769,1.2791901,1
672,9.199005,-0.18176270000000003,1.2791901,1
673,9.254074000000001,-0.19493103,1.310318,1
674,9.254074000000001,-0.17817688,1.3641815000000002,1
675,9.239716,-0.12550354,1.4024811000000001,1
676,9.183456,-0.03691101,1.3821411,1
677,9.209793,0.0061798096,1.3857268999999999,1
678,9.236130000000001,0.04927063,1.3929138,1
679,9.167892,0.10433959999999999,1.3725586,1
680,9.190628,0.112716675,1.4240416999999999,1
681,9.23732,0.05406189,1.3713684,1
682,9.155914,0.13786316,1.2959441999999999,1
683,9.17746,0.12348938,1.315094,1
684,9.173874,0.13067627,1.4012909,1
685,9.207397,0.11392212,1.5030518,1
686,9.165497,0.13426208,1.5090332,1
687,9.163101,0.12469482400000001,1.5198059,1
688,9.155914,0.14982605,1.5485381999999999,1
689,9.195419000000001,0.14743042,1.5174103,1
690,9.209793,0.08039856,1.4838867,1
691,9.179855,0.13426208,1.4407959,1
692,9.197815,0.105529785,1.4192505,1
693,9.294785000000001,0.14743042,1.3426361,1
694,9.2313385,0.24440002,1.3270721,1
695,9.00029,0.1797638,1.413269,1
696,9.037399,0.08039856,1.4240416999999999,1
697,9.222961,0.014556885,1.4072723,1
698,9.295975,0.009765625,1.3893127,1
699,9.25647,0.03970337,1.4898833999999999,1
700,9.214569000000001,-0.0045928955,1.4384003,1
701,9.179855,-0.0105896,1.4838867,1
702,9.155914,0.06602478,1.4719238000000001,1
703,9.212173,0.03012085,1.4264374,1
704,9.214569000000001,-0.0105896,1.3677673000000001,1
705,9.218169999999999,-0.03691101,1.3593903,1
706,9.273239,0.019348145,1.3845367,1
707,9.282805999999999,0.052871704000000005,1.3749542,1
708,9.25647,0.02772522,1.4467773000000002,1
709,9.070922999999999,0.036102295,1.5617065,1
710,9.072113,0.062438965,1.6191559,1
711,9.201400999999999,0.10433959999999999,1.6802216,1
712,9.137955,0.11392212,1.6431122,1
713,9.099655,0.07202148400000001,1.7879486,1
714,9.058945,0.0756073,1.8837279999999998,1
715,9.093674,0.033706665,1.9052734,1
716,9.146347,0.062438965,1.8789368000000002,1
717,9.136764999999999,0.007369995,1.8190765,1
718,9.142746,-0.09916687,1.825058,1
719,9.125992,-0.14825439999999998,1.8549957,1
720,9.088882,-0.16619873,1.9735107,1
721,9.093674,-0.13269043,2.0213928,1
722,9.133179,-0.07762146,1.9411773999999997,1
723,9.183456,-0.07762146,1.8968964,1
724,9.175064,-0.078811646,1.8777313000000002,1
725,9.100845,-0.023742676,1.7676086,1
726,9.090073,0.033706665,1.7544403000000002,1
727,9.102051,-0.0010070800999999999,1.7544403000000002,1
728,9.127182000000001,0.010971068999999998,1.8466186999999998,1
729,9.127182000000001,0.031311035,1.8310547,1
730,9.153519000000001,0.05166626,1.8573914,1
731,9.118805,0.064834595,1.8346405,1
732,9.082901,0.100753784,1.8310547,1
733,9.0577545,0.12828064,1.8789368000000002,1
734,9.080505,0.13905334,1.9100647000000002,1
735,9.088882,0.07081604,1.8813324,1
736,9.093674,0.107925415,1.9052734,1
737,9.122391,0.05645752,1.8298491999999997,1
738,9.142746,0.115112305,1.8298491999999997,1
739,9.110428,0.028915405,1.8693542,1
740,9.131973,0.03491211,1.7999268,1
741,9.160706,0.09596252400000001,1.6945801,1
742,9.094864,0.115112305,1.5844421,1
743,9.157119999999999,0.07321167,1.6215515,1
744,9.188232000000001,0.0061798096,1.6646576000000002,1
745,9.157119999999999,-0.045303345,1.6682433999999997,1
746,9.131973,-0.078811646,1.6646576000000002,1
747,9.137955,-0.057266235,1.7879486,1
748,9.181061,-0.038116455,1.7233124,1
749,9.184647,0.0049743652,1.6814116999999997,1
750,9.175064,0.081588745,1.7101439999999999,1
751,9.127182000000001,0.08758545,1.6670532,1
752,9.121201,0.112716675,1.7424621999999999,1
753,9.100845,0.119903564,1.7221069,1
754,9.114014,0.12588501,1.7735901,1
755,9.116408999999999,0.18814087,1.7436676,1
756,9.116408999999999,0.21087646,1.7604218,1
757,9.122391,0.23721313,1.7460631999999998,1
758,9.163101,0.2515869,1.7328949,1
759,9.154724,0.25637817,1.6718292000000001,1
760,9.201400999999999,0.27432249999999997,1.6383208999999999,1
761,9.151123,0.27313232,1.6538848999999998,1
762,9.021835000000001,0.2132721,1.7077484,1
763,9.099655,0.15461731,1.7795715,1
764,9.160706,0.10913086,1.8573914,1
765,9.159514999999999,0.17137146,1.9818878,1
766,9.012267999999999,0.093566895,2.002243,1
767,9.127182000000001,0.03730774,2.0249786,1
768,9.157119999999999,-0.023742676,1.9890747,1
769,9.025436000000001,0.021743774,2.0034332,1
770,9.008666999999999,0.0013885498,2.0166016,1
771,9.121201,-0.0010070800999999999,1.9256133999999998,1
772,9.099655,-0.040512085,1.7927398999999997,1
773,9.154724,-0.033325195,1.7735901,1
774,9.157119999999999,-0.071640015,1.8418273999999997,1
775,9.133179,-0.08001709,1.880127,1
776,9.110428,-0.11352539,1.8789368000000002,1
777,9.096069,-0.078811646,1.8226776000000002,1
778,9.184647,-0.097976685,1.7711945,1
779,9.163101,-0.07043457,1.7592316000000003,1
780,9.075714,-0.0045928955,1.7352753,1
781,9.102051,-0.0440979,1.7640076,1
782,9.167892,-0.06324768,1.8394317999999998,1
783,9.167892,-0.05607605,1.8992919999999998,1
784,9.142746,-0.042907715,1.9567413,1
785,9.127182000000001,-0.03213501,1.9447784,1
786,9.09845,-0.045303345,1.928009,1
787,9.167892,-0.12789917,1.8609772,1
788,9.234924000000001,-0.21647644,1.8849182,1
789,9.141556,-0.19732666,1.8789368000000002,1
790,9.023041000000001,-0.10874939,1.9028778000000002,1
791,9.015854,0.013366699,1.9711151000000002,1
792,9.070922999999999,0.024139404,2.0525208,1
793,9.128387,-0.012969971,1.9974518,1
794,9.14035,-0.102752686,1.9890747,1
795,9.086487,-0.121917725,2.0357513,1
796,9.114014,-0.13627625,2.0585022,1
797,9.0972595,-0.13269043,2.0632935000000003,1
798,8.982330000000001,-0.15423584,2.1195526,1
799,9.017059,-0.14825439999999998,2.1004028,1
800,9.117614999999999,-0.09437561,2.077652,1
801,9.049377,-0.03213501,2.0752563000000004,1
802,9.049377,0.016952515,2.070465,1
803,9.06134,-0.023742676,2.0968018,1
804,9.067337,-0.035720825,2.1195526,1
805,9.115219,-0.06086731,2.0321655,1
806,9.106842,-0.15303039999999998,1.9579468,1
807,9.121201,-0.22247314,1.9244232,1
808,9.116408999999999,-0.22605896,1.9244232,1
809,9.115219,-0.19732666,1.9639282,1
810,9.1128235,-0.09677124,1.8585814999999999,1
811,9.141556,-0.064453125,1.8861237000000002,1
812,9.191833500000001,-0.124313354,1.9387816999999998,1
813,9.115219,-0.13148499,1.9016723999999998,1
814,9.039795,-0.097976685,1.9220276,1
815,9.038605,-0.071640015,2.0249786,1
816,9.094864,-0.02734375,2.0213928,1
817,9.052963,0.009765625,2.0393524,1
818,9.009872,0.03251648,2.0513153,1
819,9.041,0.05885315,2.0201874,1
820,9.088882,0.038497925,1.9986419999999998,1
821,9.058945,0.02293396,1.9423828,1
822,9.038605,0.083984375,1.8908996999999999,1
823,9.058945,0.15342712,1.8657683999999997,1
824,9.090073,0.1845398,1.8238678,1
825,9.232529,0.17736816,1.7268982,1
826,9.201400999999999,0.112716675,1.6514893,1
827,9.160706,0.0061798096,1.5760651,1
828,9.273239,-0.03930664,1.4539642,1
829,9.257675,-0.085998535,1.4324188,1
830,9.197815,-0.13388062,1.4683228000000002,1
831,9.142746,-0.114730835,1.4850922,1
832,9.181061,-0.10635376,1.5425415,1
833,9.206192,-0.11831665,1.5413513,1
834,9.218169999999999,-0.18296814,1.5820465,1
835,9.207397,-0.16381836,1.5880432,1
836,9.249298,-0.19374084,1.6167755,1
837,9.225342,-0.22366333,1.5760651,1
838,9.236130000000001,-0.30148315,1.6036072000000001,1
839,9.203796,-0.27754209999999996,1.6083832,1
840,9.23851,-0.27514648,1.6359253,1
841,9.17627,-0.1925354,1.5820465,1
842,9.167892,-0.13986206,1.6359253,1
843,9.115219,-0.102752686,1.6682433999999997,1
844,9.164291,-0.090789795,1.7544403000000002,1
845,9.131973,-0.06564331,1.7544403000000002,1
846,9.170288000000001,-0.03691101,1.7711945,1
847,9.128387,-0.02015686,1.7257080000000002,1
848,9.068527,0.0013885498,1.7053528000000002,1
849,9.111618,-0.023742676,1.6897887999999999,1
850,9.203796,-0.03691101,1.6179656999999998,1
851,9.149933,-0.038116455,1.6646576000000002,1
852,8.9991,-0.08720398,1.7137299,1
853,9.038605,-0.04170227,1.9064636000000001,1
854,9.340271000000001,0.105529785,2.0944061,1
855,9.046982,0.1905365,2.0956116000000002,1
856,8.751297000000001,-0.13748169,1.8346405,1
857,9.380966,-0.49661255,1.4012909,1
858,9.510254,-0.13508606,1.4743195,1
859,9.048172000000001,0.5053711,1.4192505,1
860,9.194229,0.7914734,1.7149352999999998,1
861,9.159514999999999,0.54008484,1.5928345,1
862,8.947617,0.46107483,1.6407166000000002,1
863,8.985930999999999,0.47903442,1.8861237000000002,1
864,9.020645,0.14863586,1.7340851000000002,1
865,9.121201,-0.28112793,1.3785399999999999,1
866,9.25528,-0.41999817,1.2983398000000002,1
867,9.357025,-0.23922729999999998,1.3964996,1
868,9.279221000000001,-0.028533936,1.686203,1
869,9.145142,0.13426208,2.0596924,1
870,9.044586,0.04208374,2.1351166,1
871,8.989517,-0.009384155,2.10997,1
872,8.952408,0.036102295,2.0920104999999998,1
873,9.015854,0.08279419,2.1794127999999997,1
874,9.063736,-0.078811646,2.1279297,1
875,9.157119999999999,-0.3002777,2.0513153,1
876,9.145142,-0.33738708,1.9471741000000002,1
877,9.133179,-0.25360107,1.9124603,1
878,9.07811,-0.16381836,1.7448578000000001,1
879,9.006287,-0.16979979999999997,1.6131744,1
880,9.117614999999999,-0.15065002,1.6215515,1
881,9.184647,-0.04888916,1.6502838,1
882,9.291183,0.050476074,1.5892334,1
883,9.301956,0.112716675,1.53656,1
884,9.143951,0.15222168,1.6143798999999999,1
885,8.997894,0.15940857,1.6957703000000002,1
886,8.964386,0.25637817,1.631134,1
887,8.853058,0.21566772,1.5856476000000002,1
888,8.947617,0.088775635,1.7125397,1
889,9.213379,-0.05128479,1.8908996999999999,1
890,9.675461,-0.20211792,2.1279297,1
891,9.726929,-0.30986023,2.0968018,1
892,9.305557,-0.28471375,1.7664031999999998,1
893,8.7656555,-0.12310791,1.7879486,1
894,8.569336,-0.12310791,1.8717499,1
895,8.681869500000001,-0.14585876,1.7029572,1
896,9.102051,-0.16261292,1.7436676,1
897,9.444412,-0.17698670000000002,1.8621674,1
898,9.570114,-0.22605896,2.0189972,1
899,9.312744,-0.43675232,1.828659,1
900,8.983536,-0.4451294,1.6000061,1
901,8.969161999999999,-0.50019836,1.6131744,1
902,9.206192,-0.368515,1.5796661,1
903,9.31752,-0.2715454,1.6945801,1
904,9.236130000000001,-0.25360107,1.7700043,1
905,9.224152,-0.3541565,1.9914551,1
906,9.105637,-0.3876648,1.9555511000000003,1
907,9.013458,-0.46069336,1.8657683999999997,1
908,9.093674,-0.47984314,1.8322449,1
909,9.106842,-0.42597959999999996,1.8729552999999999,1
910,9.121201,-0.30625916,1.9220276,1
911,9.115219,-0.21768188,2.053711,1
912,9.088882,-0.19134521,2.0285645,1
913,9.076903999999999,-0.17817688,1.9244232,1
914,9.049377,-0.27035522,1.8885040000000002,1
915,9.134369,-0.29429626,1.8693542,1
916,9.221756,-0.30986023,1.8633727999999998,1
917,9.154724,-0.28112793,1.8083038,1
918,9.136764999999999,-0.24520874,1.844223,1
919,9.142746,-0.1590271,1.8322449,1
920,9.134369,-0.23683167,1.8059081999999997,1
921,9.133179,-0.23443604,1.8238678,1
922,9.13916,-0.17219543,1.7783813000000002,1
923,9.0972595,-0.13148499,1.7999268,1
924,9.129578,-0.121917725,1.8083038,1
925,9.086487,-0.12789917,1.8597869999999999,1
926,9.111618,-0.2212677,1.8741455000000002,1
927,9.155914,-0.35534668,1.9100647000000002,1
928,9.228943,-0.42597959999999996,1.8908996999999999,1
929,9.117614999999999,-0.35055542,1.8705596999999998,1
930,9.096069,-0.27514648,1.8430176,1
931,9.064941000000001,-0.23443604,1.8897095000000002,1
932,9.038605,-0.25239563,1.9471741000000002,1
933,9.182250999999999,-0.27394104,1.9112548999999999,1
934,9.143951,-0.31105042,1.9112548999999999,1
935,9.136764999999999,-0.32421875,1.8873137999999998,1
936,9.131973,-0.33140564,1.8825226000000002,1
937,9.099655,-0.2571869,1.7903441999999998,1
938,9.104446000000001,-0.23564148,1.7819672,1
939,9.133179,-0.16381836,1.7472534,1
940,9.14035,-0.15065002,1.7352753,1
941,9.133179,-0.16261292,1.7999268,1
942,9.109222,-0.19134521,1.8190765,1
943,9.105637,-0.21768188,1.8873137999999998,1
944,9.142746,-0.22605896,1.8406220000000002,1
945,9.091277999999999,-0.15065002,1.9064636000000001,1
946,9.063736,-0.09437561,2.0070189999999997,1
947,9.064941000000001,-0.07762146,1.9962463,1
948,9.041,-0.10635376,1.9328003,1
949,9.122391,-0.2212677,1.8837279999999998,1
950,9.134369,-0.20211792,1.8214721999999999,1
951,9.13916,-0.28471375,1.9208374,1
952,9.12001,-0.33140564,1.9747008999999998,1
953,9.076903999999999,-0.3589325,1.9938506999999999,1
954,9.081696,-0.37928772,1.9615326000000002,1
955,9.178664999999999,-0.35653687,1.844223,1
956,9.143951,-0.23564148,1.8346405,1
957,9.102051,-0.20451355,1.7891540000000001,1
958,9.104446000000001,-0.23922729999999998,1.8071136000000003,1
959,9.15831,-0.20570374,1.7819672,1
960,9.161896,-0.16619873,1.7424621999999999,1
961,9.14035,-0.112335205,1.7065582,1
962,9.096069,-0.15423584,1.7125397,1
963,9.090073,-0.21409607,1.7233124,1
964,9.142746,-0.17698670000000002,1.7221069,1
965,9.134369,-0.13627625,1.6670532,1
966,9.185837,-0.09197998,1.6598663,1
967,9.251678,-0.117126465,1.6502838,1
968,9.205002,-0.17936707,1.7005615,1
969,9.1128235,-0.2787323,1.7735901,1
970,9.051772999999999,-0.22366333,1.8023223999999998,1
971,9.117614999999999,-0.19972229,1.7891540000000001,1
972,9.142746,-0.22486877,1.7017669999999998,1
973,9.183456,-0.25598145,1.6299438,1
974,9.21936,-0.19134521,1.6263428,1
975,9.163101,-0.17817688,1.6538848999999998,1
976,9.188232000000001,-0.15423584,1.6957703000000002,1
977,9.135558999999999,-0.1590271,1.6191559,1
978,9.142746,-0.17459106,1.5305786,1
979,9.292389,-0.22007751,1.449173,1
980,9.234924000000001,-0.21887207,1.3988953000000002,1
981,9.127182000000001,-0.2715454,1.5257874,1
982,9.128387,-0.26914978,1.6036072000000001,1
983,9.147537,-0.28710938,1.6730346999999999,1
984,9.181061,-0.29788208,1.6730346999999999,1
985,9.159514999999999,-0.22964478,1.6562805,1
986,9.136764999999999,-0.08001709,1.5473328000000002,1
987,9.12001,-0.04888916,1.5401611000000002,1
988,9.091277999999999,-0.08001709,1.5461426,1
989,9.137955,-0.14106749999999998,1.5940246999999999,1
990,9.161896,-0.17698670000000002,1.6047973999999998,1
991,9.208588,-0.19493103,1.5820465,1
992,9.248092999999999,-0.19853210000000002,1.4276276,1
993,9.263657,-0.26914978,1.4587555,1
994,9.213379,-0.3254242,1.45755,1
995,9.175064,-0.29071045,1.5138245000000001,1
996,9.17746,-0.25479126,1.5509338,1
997,9.17627,-0.25239563,1.6203613000000001,1
998,9.157119999999999,-0.28231812,1.6826019,1
999,9.190628,-0.3182373,1.7352753,1
1000,9.147537,-0.289505,1.8106995,1
1001,9.164291,-0.25837708,1.8394317999999998,1
1002,9.123596000000001,-0.2212677,1.8454131999999999,1
1003,9.128387,-0.20570374,1.8214721999999999,1
1004,9.075714,-0.20570374,1.7556305,1
1005,9.104446000000001,-0.15663147,1.6838074,1
1006,9.127182000000001,-0.14585876,1.6838074,1
1007,9.199005,-0.15184021,1.6598663,1
1008,9.145142,-0.16500854,1.6371155000000002,1
1009,9.082901,-0.14585876,1.5904388,1
1010,9.172684,-0.24281311,1.5628966999999998,1
1011,9.206192,-0.28112793,1.5844421,1
1012,9.252884,-0.32661438,1.6203613000000001,1
1013,9.196625,-0.3074646,1.6562805,1
1014,9.0793,-0.2607727,1.7316895,1
1015,9.104446000000001,-0.29788208,1.7771758999999998,1
1016,9.099655,-0.2715454,1.7292938000000002,1
1017,9.125992,-0.24043274,1.6443023999999997,1
1018,9.142746,-0.20809937,1.6024017,1
1019,9.109222,-0.16979979999999997,1.5485381999999999,1
1020,9.154724,-0.18176270000000003,1.686203,1
1021,9.133179,-0.18176270000000003,1.6730346999999999,1
1022,9.160706,-0.20092773,1.6287383999999998,1
1023,9.214569000000001,-0.23085022,1.5880432,1
1024,9.232529,-0.2320404,1.5485381999999999,1
1025,9.214569000000001,-0.18536377,1.4862823,1
1026,9.172684,-0.13748169,1.4551544,1
1027,9.182250999999999,-0.210495,1.4838867,1
1028,9.228943,-0.27754209999999996,1.5150146,1
1029,9.260071,-0.31942750000000003,1.4755096,1
1030,9.257675,-0.31942750000000003,1.5222015,1
1031,9.212173,-0.34457397,1.6550751,1
1032,9.143951,-0.29071045,1.7628173999999999,1
1033,9.109222,-0.289505,1.8861237000000002,1
1034,9.109222,-0.26914978,1.8968964,1
1035,9.133179,-0.16500854,1.7987213,1
1036,9.109222,-0.13388062,1.7735901,1
1037,9.0793,-0.11831665,1.7795715,1
1038,9.051772999999999,-0.14106749999999998,1.8226776000000002,1
1039,9.091277999999999,-0.18176270000000003,1.8083038,1
1040,9.199005,-0.21170044,1.7532348999999998,1
1041,9.179855,-0.19134521,1.6658477999999999,1
1042,9.09845,-0.12310791,1.6431122,1
1043,9.17746,-0.05607605,1.6059875,1
1044,9.232529,-0.07043457,1.5389556999999998,1
1045,9.134369,-0.11352539,1.5473328000000002,1
1046,9.108032000000001,-0.14465332,1.631134,1
1047,9.122391,-0.17219543,1.6969756999999999,1
1048,9.14035,-0.25837708,1.7424621999999999,1
1049,9.109222,-0.27754209999999996,1.7640076,1
1050,9.151123,-0.26556396,1.7747803,1
1051,9.165497,-0.27275085,1.7735901,1
1052,9.153519000000001,-0.28112793,1.7592316000000003,1
1053,9.131973,-0.26556396,1.7747803,1
1054,9.110428,-0.35774229999999996,1.8118896,1
1055,9.088882,-0.3481598,1.7939453,1
1056,9.127182000000001,-0.27394104,1.7532348999999998,1
1057,9.133179,-0.13627625,1.7257080000000002,1
1058,9.125992,-0.064453125,1.6849976000000002,1
1059,9.170288000000001,-0.04649353,1.5772705,1
1060,9.232529,-0.11114502,1.5006561,1
1061,9.236130000000001,-0.1925354,1.4958649,1
1062,9.201400999999999,-0.2715454,1.4862823,1
1063,9.252884,-0.28831482,1.4479828000000001,1
1064,9.216965,-0.33738708,1.4348145,1
1065,9.210983,-0.31225586,1.4838867,1
1066,9.167892,-0.29908752,1.4443816999999999,1
1067,9.151123,-0.2715454,1.5138245000000001,1
1068,9.167892,-0.27633667,1.5856476000000002,1
1069,9.202606,-0.30387878,1.6490936,1
1070,9.170288000000001,-0.28112793,1.6514893,1
1071,9.173874,-0.28831482,1.7448578000000001,1
1072,9.17627,-0.24520874,1.7819672,1
1073,9.172684,-0.23922729999999998,1.7532348999999998,1
1074,9.145142,-0.26556396,1.7520447000000001,1
1075,9.110428,-0.29548645,1.7292938000000002,1
1076,9.103241,-0.28471375,1.7137299,1
1077,9.194229,-0.22486877,1.670639,1
1078,9.221756,-0.16740417,1.5904388,1
1079,9.189438,-0.15303039999999998,1.5652924,1
1080,9.164291,-0.19613647,1.6083832,1
1081,9.170288000000001,-0.17578125,1.5916290000000002,1
1082,9.135558999999999,-0.16619873,1.6538848999999998,1
1083,9.128387,-0.14944458,1.6395111,1
1084,9.143951,-0.18176270000000003,1.5700836,1
1085,9.188232000000001,-0.1877594,1.5641022,1
1086,9.191833500000001,-0.22366333,1.5485381999999999,1
1087,9.188232000000001,-0.20211792,1.5473328000000002,1
1088,9.134369,-0.22726439999999998,1.5844421,1
1089,9.136764999999999,-0.20570374,1.607193,1
1090,9.193024000000001,-0.210495,1.6215515,1
1091,9.167892,-0.20690918,1.6059875,1
1092,9.117614999999999,-0.22726439999999998,1.6610565,1
1093,9.137955,-0.25837708,1.6742249,1
1094,9.184647,-0.34936523,1.7053528000000002,1
1095,9.165497,-0.32661438,1.6658477999999999,1
1096,9.182250999999999,-0.33140564,1.6359253,1
1097,9.17627,-0.33140564,1.5808563,1
1098,9.167892,-0.3254242,1.5724791999999999,1
1099,9.199005,-0.2799225,1.5509338,1
1100,9.181061,-0.2715454,1.5198059,1
1101,9.195419000000001,-0.2320404,1.5066376,1
1102,9.191833500000001,-0.19613647,1.4814911,1
1103,9.184647,-0.20930481,1.4755096,1
1104,9.195419000000001,-0.21647644,1.4850922,1
1105,9.153519000000001,-0.22726439999999998,1.4838867,1
1106,9.169083,-0.24401855,1.5712738000000002,1
1107,9.227737,-0.22366333,1.5617065,1
1108,9.190628,-0.21768188,1.5150146,1
1109,9.134369,-0.20809937,1.5748749,1
1110,9.210983,-0.210495,1.5796661,1
1111,9.187042,-0.210495,1.5700836,1
1112,9.159514999999999,-0.22007751,1.567688,1
1113,9.151123,-0.28112793,1.5940246999999999,1
1114,9.13916,-0.27754209999999996,1.7017669999999998,1
1115,9.183456,-0.29071045,1.7508392,1
1116,9.154724,-0.2787323,1.7556305,1
1117,9.122391,-0.2571869,1.7077484,1
1118,9.178664999999999,-0.29908752,1.7233124,1
1119,9.153519000000001,-0.32421875,1.6574706999999997,1
1120,9.199005,-0.32302856,1.6179656999999998,1
1121,9.182250999999999,-0.32182312,1.5868378,1
1122,9.191833500000001,-0.34217834,1.6036072000000001,1
1123,9.188232000000001,-0.30625916,1.5784607,1
1124,9.161896,-0.2715454,1.5892334,1
1125,9.167892,-0.26197815,1.5928345,1
1126,9.151123,-0.2715454,1.5569153,1
1127,9.117614999999999,-0.27394104,1.5712738000000002,1
1128,9.111618,-0.27394104,1.6191559,1
1129,9.159514999999999,-0.2212677,1.5940246999999999,1
1130,9.222961,-0.23683167,1.5892334,1
1131,9.208588,-0.26914978,1.6299438,1
1132,9.169083,-0.21170044,1.6323242,1
1133,9.090073,-0.20211792,1.6335297,1
1134,9.145142,-0.26914978,1.6682433999999997,1
1135,9.197815,-0.29309082,1.7053528000000002,1
1136,9.221756,-0.2799225,1.6766205,1
1137,9.206192,-0.30387878,1.5856476000000002,1
1138,9.189438,-0.26437378,1.583252,1
1139,9.153519000000001,-0.2799225,1.5581055,1
1140,9.15831,-0.33259583,1.5964203000000001,1
1141,9.159514999999999,-0.3254242,1.6514893,1
1142,9.188232000000001,-0.34098816,1.6742249,1
1143,9.189438,-0.3254242,1.5664978,1
1144,9.15831,-0.24760437,1.6095886000000001,1
1145,9.191833500000001,-0.22486877,1.5880432,1
1146,9.207397,-0.2571869,1.6059875,1
1147,9.178664999999999,-0.27633667,1.6490936,1
1148,9.154724,-0.31105042,1.6838074,1
1149,9.133179,-0.28352356,1.6945801,1
1150,9.12001,-0.30865479999999995,1.6802216,1
1151,9.151123,-0.31225586,1.6730346999999999,1
1152,9.134369,-0.31225586,1.7233124,1
1153,9.121201,-0.32302856,1.7400665000000002,1
1154,9.151123,-0.28710938,1.7771758999999998,1
1155,9.148727000000001,-0.2607727,1.7951355,1
1156,9.128387,-0.30625916,1.7388762999999998,1
1157,9.1128235,-0.35055542,1.7268982,1
1158,9.134369,-0.39485168,1.8083038,1
1159,9.122391,-0.38887024,1.8932953000000001,1
1160,9.104446000000001,-0.34217834,1.8454131999999999,1
1161,9.105637,-0.30625916,1.8262633999999998,1
1162,9.160706,-0.30986023,1.8178863999999997,1
1163,9.187042,-0.3146515,1.8142852999999999,1
1164,9.142746,-0.37091064,1.8454131999999999,1
1165,9.134369,-0.40682983,1.8071136000000003,1
1166,9.103241,-0.47984314,1.7951355,1
1167,9.161896,-0.47146606,1.7939453,1
1168,9.133179,-0.42477417,1.8083038,1
1169,9.075714,-0.3876648,1.880127,1
1170,9.147537,-0.37570190000000003,1.8502044999999998,1
1171,9.181061,-0.41760254,1.8585814999999999,1
1172,9.153519000000001,-0.5205536000000001,1.9208374,1
1173,9.096069,-0.52293396,2.0237884999999998,1
1174,9.038605,-0.54689026,2.0596924,1
1175,9.125992,-0.58039856,2.02977,1
1176,9.051772999999999,-0.54689026,1.8454131999999999,1
1177,9.031417999999999,-0.46548462,1.9687195,1
1178,9.064941000000001,-0.44033813,2.0321655,1
1179,9.102051,-0.4379425,2.0608978,1
1180,9.152328500000001,-0.41160583,1.9950561999999998,1
1181,9.118805,-0.33499146,1.9076691000000003,1
1182,9.152328500000001,-0.29429626,1.8633727999999998,1
1183,9.127182000000001,-0.3002777,1.8130951000000002,1
1184,9.134369,-0.32302856,1.7891540000000001,1
1185,9.109222,-0.30865479999999995,1.7568359,1
1186,9.133179,-0.24760437,1.7137299,1
1187,9.157119999999999,-0.20930481,1.686203,1
1188,9.170288000000001,-0.20211792,1.7436676,1
1189,9.12001,-0.20930481,1.7640076,1
1190,9.155914,-0.26197815,1.785553,1
1191,9.13916,-0.2799225,1.7520447000000001,1
1192,9.14035,-0.30387878,1.7304993000000002,1
1193,9.13916,-0.33021545,1.7221069,1
1194,9.13916,-0.32302856,1.7065582,1
1195,9.136764999999999,-0.32182312,1.6538848999999998,1
1196,9.167892,-0.33978270000000005,1.6670532,1
1197,9.146347,-0.28352356,1.6155701,1
1198,9.191833500000001,-0.26437378,1.5593108999999998,1
1199,9.185837,-0.22845459,1.5461426,1
1200,9.15831,-0.27394104,1.6275482,1
1201,9.165497,-0.33021545,1.6646576000000002,1
1202,9.160706,-0.32063293,1.7005615,1
1203,9.175064,-0.29908752,1.7101439999999999,1
1204,9.215775,-0.33259583,1.6407166000000002,1
1205,9.130783000000001,-0.31704712,1.622757,1
1206,9.06134,-0.31942750000000003,1.6802216,1
1207,9.118805,-0.27754209999999996,1.6933898999999997,1
1208,9.216965,-0.3182373,1.6454925999999999,1
1209,9.145142,-0.34217834,1.5952148000000002,1
1210,9.207397,-0.33859253,1.6191559,1
1211,9.221756,-0.3146515,1.6047973999999998,1
1212,9.222961,-0.33259583,1.5628966999999998,1
1213,9.194229,-0.33859253,1.5700836,1
1214,9.173874,-0.31584167,1.5413513,1
1215,9.216965,-0.29788208,1.5688782,1
1216,9.183456,-0.2966919,1.5150146,1
1217,9.131973,-0.26795959999999996,1.4934691999999998,1
1218,9.085281,-0.22605896,1.5389556999999998,1
1219,9.102051,-0.20330810000000002,1.6407166000000002,1
1220,9.183456,-0.17459106,1.6718292000000001,1
1221,9.155914,-0.23564148,1.5808563,1
1222,9.165497,-0.23803711,1.6239471,1
1223,9.155914,-0.26675415,1.6347198,1
1224,9.182250999999999,-0.2859192,1.6431122,1
1225,9.157119999999999,-0.26197815,1.646698,1
1226,9.157119999999999,-0.25479126,1.6383208999999999,1
1227,9.14035,-0.25837708,1.583252,1
1228,9.153519000000001,-0.24162292,1.6323242,1
1229,9.136764999999999,-0.23564148,1.6299438,1
1230,9.135558999999999,-0.17817688,1.6335297,1
1231,9.137955,-0.14585876,1.6167755,1
1232,9.181061,-0.15303039999999998,1.6514893,1
1233,9.17746,-0.17219543,1.7053528000000002,1
1234,9.165497,-0.21409607,1.6921843999999997,1
1235,9.17627,-0.23922729999999998,1.6550751,1
1236,9.182250999999999,-0.26437378,1.6885986000000002,1
1237,9.122391,-0.25958252,1.7616119,1
1238,9.17627,-0.28231812,1.7257080000000002,1
1239,9.178664999999999,-0.25360107,1.6814116999999997,1
1240,9.117614999999999,-0.26316833,1.6275482,1
1241,9.143951,-0.26675415,1.6921843999999997,1
1242,9.124786,-0.22845459,1.7580261000000001,1
1243,9.171478,-0.21768188,1.804718,1
1244,9.153519000000001,-0.25120544,1.7640076,1
1245,9.128387,-0.23443604,1.7364807,1
1246,9.133179,-0.25598145,1.7592316000000003,1
1247,9.165497,-0.27754209999999996,1.7544403000000002,1
1248,9.166687,-0.28710938,1.7304993000000002,1
1249,9.14035,-0.28112793,1.7173308999999997,1
1250,9.137955,-0.30506897,1.7532348999999998,1
1251,9.187042,-0.26675415,1.7508392,1
1252,9.167892,-0.2320404,1.7424621999999999,1
1253,9.161896,-0.18415833,1.7017669999999998,1
1254,9.130783000000001,-0.18655396,1.6993713,1
1255,9.123596000000001,-0.22964478,1.7053528000000002,1
1256,9.127182000000001,-0.25958252,1.7568359,1
1257,9.171478,-0.2799225,1.7508392,1
1258,9.167892,-0.2966919,1.7005615,1
1259,9.13916,-0.29908752,1.6981659,1
1260,9.153519000000001,-0.28112793,1.6909942999999998,1
1261,9.146347,-0.25958252,1.7197266,1
1262,9.12001,-0.21887207,1.7328949,1
1263,9.178664999999999,-0.23803711,1.7041626,1
1264,9.152328500000001,-0.23683167,1.7436676,1
1265,9.155914,-0.25479126,1.7592316000000003,1
1266,9.12001,-0.2787323,1.7556305,1
1267,9.228943,-0.26914978,1.7544403000000002,1
1268,9.135558999999999,-0.26316833,1.7292938000000002,1
1269,9.0793,-0.21170044,1.7460631999999998,1
1270,9.147537,-0.20690918,1.7113342,1
1271,9.191833500000001,-0.17219543,1.6873932,1
1272,9.099655,-0.21289063,1.6646576000000002,1
1273,9.09845,-0.24401855,1.7101439999999999,1
1274,9.151123,-0.21170044,1.7352753,1
1275,9.157119999999999,-0.18536377,1.8166808999999997,1
1276,9.148727000000001,-0.1877594,1.7723846,1
1277,9.125992,-0.19493103,1.7113342,1
1278,9.123596000000001,-0.23683167,1.6957703000000002,1
1279,9.148727000000001,-0.2320404,1.631134,1
1280,9.109222,-0.17578125,1.7077484,1
1281,9.182250999999999,-0.18057251,1.6873932,1
1282,9.224152,-0.18655396,1.6885986000000002,1
1283,9.214569000000001,-0.18894958,1.6730346999999999,1
1284,9.134369,-0.16619873,1.7304993000000002,1
1285,9.058945,-0.11114502,1.7556305,1
1286,9.153519000000001,-0.12669373,1.7436676,1
1287,9.195419000000001,-0.117126465,1.7125397,1
1288,9.175064,-0.18296814,1.7376709,1
1289,9.147537,-0.20092773,1.8095093,1
1290,9.104446000000001,-0.15782166,1.8214721999999999,1
1291,9.114014,-0.25958252,1.8346405,1
1292,9.121201,-0.33738708,1.8609772,1
1293,9.166687,-0.36132813,1.8693542,1
1294,9.169083,-0.36013794,1.8777313000000002,1
1295,9.103241,-0.33259583,1.8526001,1
1296,9.096069,-0.24281311,1.848999,1
1297,9.106842,-0.20930481,1.8154907,1
1298,9.086487,-0.19972229,1.7759857,1
1299,9.167892,-0.1925354,1.7759857,1
1300,9.175064,-0.19972229,1.7448578000000001,1
1301,9.102051,-0.1925354,1.7101439999999999,1
1302,9.09845,-0.16979979999999997,1.7604218,1
1303,9.200211,-0.18176270000000003,1.7185211,1
1304,9.118805,-0.20451355,1.7149352999999998,1
1305,9.080505,-0.20211792,1.6766205,1
1306,9.141556,-0.14585876,1.7532348999999998,1
1307,9.130783000000001,-0.13388062,1.7460631999999998,1
1308,9.151123,-0.14106749999999998,1.7616119,1
1309,9.080505,-0.15303039999999998,1.7113342,1
1310,9.122391,-0.16381836,1.6933898999999997,1
1311,9.187042,-0.21528625,1.6885986000000002,1
1312,9.178664999999999,-0.2607727,1.7556305,1
1313,9.123596000000001,-0.25479126,1.7197266,1
1314,9.128387,-0.24520874,1.7879486,1
1315,9.125992,-0.22726439999999998,1.8717499,1
1316,9.148727000000001,-0.26197815,1.8418273999999997,1
1317,9.136764999999999,-0.28831482,1.8358459999999999,1
1318,9.151123,-0.26197815,1.796341,1
1319,9.122391,-0.30387878,1.8130951000000002,1
1320,9.157119999999999,-0.33380127,1.8513947,1
1321,9.175064,-0.34936523,1.8118896,1
1322,9.165497,-0.32900999999999997,1.7843628,1
1323,9.173874,-0.33380127,1.7376709,1
1324,9.163101,-0.31942750000000003,1.7340851000000002,1
1325,9.171478,-0.3002777,1.7472534,1
1326,9.171478,-0.28471375,1.6897887999999999,1
1327,9.171478,-0.28112793,1.6502838,1
1328,9.143951,-0.24520874,1.6670532,1
1329,9.164291,-0.28231812,1.7137299,1
1330,9.135558999999999,-0.25239563,1.7161255000000002,1
1331,9.146347,-0.25837708,1.7101439999999999,1
1332,9.167892,-0.24043274,1.7101439999999999,1
1333,9.206192,-0.19613647,1.6550751,1
1334,9.137955,-0.21528625,1.6670532,1
1335,9.087677000000001,-0.2320404,1.6814116999999997,1
1336,9.202606,-0.2320404,1.662262,1
1337,9.190628,-0.26316833,1.6478881999999997,1
1338,9.125992,-0.23324585,1.6347198,1
1339,9.137955,-0.21887207,1.6730346999999999,1
1340,9.122391,-0.22486877,1.6873932,1
1341,9.160706,-0.21768188,1.7005615,1
1342,9.137955,-0.26556396,1.6849976000000002,1
1343,9.159514999999999,-0.26316833,1.6490936,1
1344,9.189438,-0.29788208,1.5976105,1
1345,9.15831,-0.32063293,1.5641022,1
1346,9.170288000000001,-0.30865479999999995,1.5652924,1
1347,9.143951,-0.28710938,1.6047973999999998,1
1348,9.161896,-0.31344604,1.6694488999999997,1
1349,9.179855,-0.32302856,1.6490936,1
1350,9.131973,-0.29908752,1.6083832,1
1351,9.12001,-0.28471375,1.6419066999999998,1
1352,9.178664999999999,-0.29071045,1.6634521,1
1353,9.171478,-0.3074646,1.6610565,1
1354,9.17746,-0.32421875,1.6694488999999997,1
1355,9.143951,-0.3074646,1.6742249,1
1356,9.141556,-0.25120544,1.7364807,1
1357,9.133179,-0.27035522,1.7484436,1
1358,9.122391,-0.30506897,1.7364807,1
1359,9.151123,-0.31584167,1.7173308999999997,1
1360,9.166687,-0.32063293,1.7149352999999998,1
1361,9.184647,-0.3469696,1.7125397,1
1362,9.149933,-0.31942750000000003,1.7496490000000002,1
1363,9.135558999999999,-0.30387878,1.7580261000000001,1
1364,9.169083,-0.27633667,1.7209167,1
1365,9.220566,-0.30148315,1.6670532,1
1366,9.142746,-0.34098816,1.6826019,1
1367,9.1128235,-0.29548645,1.7161255000000002,1
1368,9.201400999999999,-0.26675415,1.7233124,1
1369,9.169083,-0.26197815,1.646698,1
1370,9.117614999999999,-0.26914978,1.6478881999999997,1
1371,9.128387,-0.29429626,1.6993713,1
1372,9.134369,-0.26437378,1.7700043,1
1373,9.157119999999999,-0.27035522,1.7592316000000003,1
1374,9.141556,-0.26437378,1.7747803,1
1375,9.148727000000001,-0.2799225,1.7711945,1
1376,9.125992,-0.29429626,1.7077484,1
1377,9.167892,-0.29548645,1.6682433999999997,1
1378,9.161896,-0.30986023,1.6873932,1
1379,9.13916,-0.28710938,1.6718292000000001,1
1380,9.141556,-0.2607727,1.7604218,1
1381,9.165497,-0.26914978,1.7652130000000001,1
1382,9.170288000000001,-0.2571869,1.7783813000000002,1
1383,9.127182000000001,-0.32182312,1.7233124,1
1384,9.142746,-0.32900999999999997,1.7580261000000001,1
1385,9.166687,-0.2966919,1.7676086,1
1386,9.133179,-0.28831482,1.7891540000000001,1
1387,9.102051,-0.26914978,1.7843628,1
1388,9.13916,-0.27394104,1.7879486,1
1389,9.146347,-0.31584167,1.7700043,1
1390,9.121201,-0.30506897,1.7843628,1
1391,9.136764999999999,-0.3146515,1.7568359,1
1392,9.116408999999999,-0.2571869,1.7771758999999998,1
1393,9.129578,-0.27754209999999996,1.7568359,1
1394,9.141556,-0.26914978,1.7735901,1
1395,9.104446000000001,-0.25958252,1.785553,1
1396,9.152328500000001,-0.28710938,1.7580261000000001,1
1397,9.146347,-0.32182312,1.7771758999999998,1
1398,9.108032000000001,-0.30267334,1.7867583999999999,1
1399,9.133179,-0.30267334,1.8130951000000002,1
1400,9.171478,-0.30865479999999995,1.7723846,1
1401,9.125992,-0.3146515,1.8370361000000002,1
1402,9.054169,-0.25598145,1.8932953000000001,1
1403,9.108032000000001,-0.26675415,1.8430176,1
1404,9.195419000000001,-0.26197815,1.796341,1
1405,9.121201,-0.23443604,1.7484436,1
1406,9.099655,-0.25120544,1.7364807,1
1407,9.105637,-0.23564148,1.7664031999999998,1
1408,9.15831,-0.27514648,1.7759857,1
1409,9.148727000000001,-0.25837708,1.7628173999999999,1
1410,9.111618,-0.27394104,1.7149352999999998,1
1411,9.146347,-0.33738708,1.7328949,1
1412,9.165497,-0.35295105,1.7376709,1
1413,9.149933,-0.33259583,1.7580261000000001,1
1414,9.165497,-0.32063293,1.7628173999999999,1
1415,9.096069,-0.2799225,1.8190765,1
1416,9.14035,-0.30148315,1.8921051,1
1417,9.105637,-0.27275085,1.9004822000000001,1
1418,9.084091,-0.30506897,1.9160461,1
1419,9.0733185,-0.29788208,1.9818878,1
1420,9.106842,-0.3002777,1.9723053,1
1421,9.152328500000001,-0.30387878,1.9328003,1
1422,9.116408999999999,-0.31942750000000003,1.8849182,1
1423,9.094864,-0.29788208,1.8789368000000002,1
1424,9.067337,-0.29788208,1.8274536,1
1425,9.0972595,-0.2787323,1.8178863999999997,1
1426,9.127182000000001,-0.2787323,1.8071136000000003,1
1427,9.116408999999999,-0.33499146,1.8537903000000002,1
1428,9.141556,-0.3074646,1.8346405,1
1429,9.133179,-0.33738708,1.8502044999999998,1
1430,9.124786,-0.33380127,1.8921051,1
1431,9.093674,-0.30267334,1.8753357,1
1432,9.130783000000001,-0.32421875,1.9555511000000003,1
1433,9.090073,-0.34098816,1.9603423999999998,1
1434,9.093674,-0.32781982,1.9818878,1
1435,9.143951,-0.33499146,1.9699096999999999,1
1436,9.129578,-0.3146515,1.9567413,1
1437,9.021835000000001,-0.34217834,1.9723053,1
1438,9.033813,-0.32900999999999997,1.9759064,1
1439,9.15831,-0.42837524,1.9244232,1
1440,9.0793,-0.46188354,1.8789368000000002,1
1441,9.082901,-0.39006042,1.9184418,1
1442,9.094864,-0.28710938,1.8945006999999998,1
1443,9.166687,-0.21887207,1.8382262999999999,1
1444,9.146347,-0.21528625,1.8274536,1
1445,9.110428,-0.21170044,1.8394317999999998,1
1446,9.117614999999999,-0.23085022,1.8466186999999998,1
1447,9.129578,-0.2571869,1.7975311,1
1448,9.137955,-0.30865479999999995,1.8154907,1
1449,9.146347,-0.32182312,1.8741455000000002,1
1450,9.134369,-0.28112793,1.9112548999999999,1
1451,9.131973,-0.2859192,1.9531555,1
1452,9.123596000000001,-0.23803711,1.9351958999999999,1
1453,9.093674,-0.23803711,1.9220276,1
1454,9.100845,-0.22486877,1.9160461,1
1455,9.1128235,-0.2320404,1.9100647000000002,1
1456,9.09845,-0.21768188,1.9160461,1
1457,9.07811,-0.26316833,1.8729552999999999,1
1458,9.088882,-0.2715454,1.8789368000000002,1
1459,9.161896,-0.26795959999999996,1.8537903000000002,1
1460,9.146347,-0.2607727,1.844223,1
1461,9.131973,-0.21528625,1.8526001,1
1462,9.070922999999999,-0.19853210000000002,1.796341,1
1463,9.109222,-0.20330810000000002,1.8035126,1
1464,9.115219,-0.19493103,1.8023223999999998,1
1465,9.088882,-0.18894958,1.7915497,1
1466,9.12001,-0.16261292,1.7999268,1
1467,9.124786,-0.13269043,1.7652130000000001,1
1468,9.122391,-0.119522095,1.7831726000000003,1
1469,9.124786,-0.11831665,1.7939453,1
1470,9.100845,-0.10395813,1.7915497,1
1471,9.173874,-0.12550354,1.8035126,1
1472,9.169083,-0.109939575,1.7101439999999999,1
1473,9.051772999999999,-0.12071228,1.8083038,1
1474,9.122391,-0.11592102,1.7891540000000001,1
1475,9.171478,-0.12071228,1.7292938000000002,1
1476,9.087677000000001,-0.13029480000000002,1.7424621999999999,1
1477,9.117614999999999,-0.18296814,1.7867583999999999,1
1478,9.13916,-0.13627625,1.7759857,1
1479,9.09845,-0.16021729,1.7592316000000003,1
1480,9.128387,-0.17098999,1.7723846,1
1481,9.108032000000001,-0.16381836,1.7987213,1
1482,9.159514999999999,-0.18536377,1.7831726000000003,1
1483,9.153519000000001,-0.24162292,1.7508392,1
1484,9.134369,-0.25120544,1.7843628,1
1485,9.129578,-0.24520874,1.7843628,1
1486,9.129578,-0.26316833,1.8059081999999997,1
1487,9.134369,-0.2715454,1.8023223999999998,1
1488,9.152328500000001,-0.25120544,1.8382262999999999,1
1489,9.123596000000001,-0.24880981,1.8418273999999997,1
1490,9.099655,-0.25239563,1.8657683999999997,1
1491,9.115219,-0.2607727,1.8717499,1
1492,9.145142,-0.28352356,1.8502044999999998,1
1493,9.136764999999999,-0.29548645,1.8825226000000002,1
1494,9.123596000000001,-0.26556396,1.8609772,1
1495,9.121201,-0.26675415,1.9016723999999998,1
1496,9.104446000000001,-0.22486877,1.8597869999999999,1
1497,9.109222,-0.2571869,1.8597869999999999,1
1498,9.133179,-0.26316833,1.8573914,1
1499,9.123596000000001,-0.26675415,1.904068,1
1500,9.133179,-0.26556396,1.825058,1
1501,9.118805,-0.21647644,1.8454131999999999,1
1502,9.118805,-0.29190063,1.8657683999999997,1
1503,9.0972595,-0.25,1.8178863999999997,1
1504,9.135558999999999,-0.24401855,1.8621674,1
1505,9.171478,-0.29429626,1.8513947,1
1506,9.087677000000001,-0.28831482,1.8478088,1
1507,9.051772999999999,-0.25360107,1.8537903000000002,1
1508,9.143951,-0.25120544,1.8741455000000002,1
1509,9.149933,-0.21768188,1.8130951000000002,1
1510,9.103241,-0.24401855,1.7927398999999997,1
1511,9.118805,-0.26197815,1.8262633999999998,1
1512,9.116408999999999,-0.2571869,1.8968964,1
1513,9.106842,-0.22605896,1.9088593,1
1514,9.096069,-0.26675415,1.9100647000000002,1
1515,9.124786,-0.2607727,1.8573914,1
1516,9.153519000000001,-0.28710938,1.796341,1
1517,9.141556,-0.29908752,1.7795715,1
1518,9.134369,-0.32302856,1.8322449,1
1519,9.104446000000001,-0.35653687,1.8585814999999999,1
1520,9.091277999999999,-0.33738708,1.8705596999999998,1
1521,9.182250999999999,-0.31344604,1.8729552999999999,1
1522,9.129578,-0.33499146,1.9100647000000002,1
1523,9.118805,-0.31105042,1.9208374,1
1524,9.096069,-0.29429626,1.8945006999999998,1
1525,9.116408999999999,-0.32900999999999997,1.8921051,1
1526,9.106842,-0.3254242,1.8885040000000002,1
1527,9.130783000000001,-0.32302856,1.8968964,1
1528,9.121201,-0.2787323,1.8753357,1
1529,9.102051,-0.25479126,1.8633727999999998,1
1530,9.123596000000001,-0.24641418,1.8573914,1
1531,9.14035,-0.24880981,1.8238678,1
1532,9.122391,-0.26316833,1.8142852999999999,1
1533,9.108032000000001,-0.31584167,1.8059081999999997,1
1534,9.106842,-0.32063293,1.8334503,1
1535,9.087677000000001,-0.29071045,1.8813324,1
1536,9.137955,-0.31225586,1.8885040000000002,1
1537,9.121201,-0.33259583,1.8729552999999999,1
1538,9.085281,-0.29429626,1.9256133999999998,1
1539,9.145142,-0.28112793,1.8956909,1
1540,9.149933,-0.32900999999999997,1.9770966,1
1541,9.064941000000001,-0.31225586,1.9351958999999999,1
1542,9.056564,-0.2859192,1.9759064,1
1543,9.15831,-0.25958252,1.9423828,1
1544,9.131973,-0.31105042,1.8849182,1
1545,9.092467999999998,-0.30148315,1.8885040000000002,1
1546,9.056564,-0.29071045,1.8705596999999998,1
1547,9.07811,-0.22726439999999998,1.9124603,1
1548,9.100845,-0.22486877,1.8837279999999998,1
1549,9.084091,-0.22726439999999998,1.9579468,1
1550,9.082901,-0.25479126,1.9364013999999998,1
1551,9.086487,-0.29788208,1.9364013999999998,1
1552,9.122391,-0.33978270000000005,1.9328003,1
1553,9.092467999999998,-0.38287354,1.9531555,1
1554,9.122391,-0.37449646,1.9866791000000001,1
1555,9.100845,-0.40083313,1.9770966,1
1556,9.09845,-0.44154358,2.0010376,1
1557,9.09845,-0.42956543,1.9914551,1
1558,9.051772999999999,-0.40682983,2.022583,1
1559,9.063736,-0.39724729999999997,2.0118103,1
1560,9.081696,-0.38407898,2.0345612,1
1561,9.081696,-0.41041565,2.0680695,1
1562,9.105637,-0.37091064,2.0405425999999998,1
1563,9.090073,-0.37570190000000003,2.0130157,1
1564,9.085281,-0.34217834,1.9782866999999997,1
1565,9.086487,-0.39126587,1.9926605,1
1566,9.06134,-0.36611938,1.9794922,1
1567,9.0972595,-0.3697052,1.9711151000000002,1
1568,9.09845,-0.39006042,1.9806824,1
1569,9.105637,-0.40203857,2.03096,1
1570,9.0793,-0.4092102,2.0680695,1
1571,9.088882,-0.39964294,2.1351166,1
1572,9.050568,-0.39006042,2.1578522,1
1573,9.058945,-0.41041565,2.1279297,1
1574,9.0577545,-0.41520690000000005,2.1291351,1
1575,9.09845,-0.40083313,2.141098,1
1576,9.054169,-0.4451294,2.1219482000000003,1
1577,8.983536,-0.4343567,2.1542664,1
1578,9.068527,-0.42837524,2.1626434,1
1579,9.110428,-0.45350647,2.1063842999999998,1
1580,9.046982,-0.48703003,2.0944061,1
1581,9.052963,-0.4439392,2.086029,1
1582,9.0577545,-0.41879272,2.1446838,1
1583,9.093674,-0.40802002,2.1195526,1
1584,9.044586,-0.42358398,2.0788574,1
1585,9.056564,-0.41281128,2.0668793,1
1586,9.074508999999999,-0.43554688,2.0728607,1
1587,9.099655,-0.4439392,2.0058289,1
1588,9.082901,-0.4343567,2.0130157,1
1589,9.096069,-0.40682983,2.0273743000000004,1
1590,9.088882,-0.4559021,2.03096,1
1591,9.084091,-0.46667479999999995,2.0549011000000004,1
1592,9.116408999999999,-0.43077087,2.0333557,1
1593,9.085281,-0.41999817,2.022583,1
1594,9.055359,-0.39724729999999997,2.0237884999999998,1
1595,9.0972595,-0.41520690000000005,2.0010376,1
1596,9.094864,-0.39724729999999997,1.9567413,1
1597,9.067337,-0.41520690000000005,1.9759064,1
1598,9.091277999999999,-0.40682983,1.9902648999999997,1
1599,9.063736,-0.4092102,2.0177917,1
1600,9.091277999999999,-0.3876648,1.9782866999999997,1
1601,9.0972595,-0.3697052,2.0034332,1
1602,9.084091,-0.38647459999999995,1.962738,1
1603,9.099655,-0.37570190000000003,1.9818878,1
1604,9.075714,-0.3936615,1.9268188000000002,1
1605,9.07811,-0.41999817,1.9878692999999998,1
1606,9.088882,-0.45471190000000006,1.9806824,1
1607,9.064941000000001,-0.45350647,1.9723053,1
1608,9.068527,-0.4056244,1.9651183999999997,1
1609,9.14035,-0.45350647,1.9471741000000002,1
1610,9.130783000000001,-0.50138855,1.9447784,1
1611,9.017059,-0.47265625,1.9866791000000001,1
1612,9.117614999999999,-0.4439392,1.9938506999999999,1
1613,9.190628,-0.44752502,1.943573,1
1614,9.050568,-0.49182129999999996,1.9052734,1
1615,9.068527,-0.48703003,1.9459686,1
1616,9.104446000000001,-0.45111084,2.014206,1
1617,9.128387,-0.43077087,1.9723053,1
1618,9.099655,-0.46069336,1.9902648999999997,1
1619,9.075714,-0.42597959999999996,1.9747008999999998,1
1620,9.084091,-0.45350647,1.9914551,1
1621,9.12001,-0.46907043,2.0070189999999997,1
1622,9.115219,-0.4439392,1.9866791000000001,1
1623,9.109222,-0.45710754,1.9723053,1
1624,9.07811,-0.41639709999999996,2.0285645,1
1625,9.09845,-0.42237854,2.0285645,1
1626,9.100845,-0.41999817,2.0166016,1
1627,9.104446000000001,-0.40802002,2.0405425999999998,1
1628,9.072113,-0.42118835,2.015396,1
1629,9.106842,-0.42358398,2.0393524,1
1630,9.081696,-0.4487152,2.0429381999999996,1
1631,9.0733185,-0.47625732,2.0608978,1
1632,9.093674,-0.48822020000000005,2.0166016,1
1633,9.115219,-0.45231628,2.0345612,1
1634,9.0972595,-0.44033813,2.0201874,1
1635,9.111618,-0.4559021,2.0393524,1
1636,9.087677000000001,-0.44631958,1.9998474,1
1637,9.114014,-0.45111084,1.9842833999999998,1
1638,9.110428,-0.42956543,2.0525208,1
1639,9.087677000000001,-0.44033813,2.0561066,1
1640,9.081696,-0.4439392,2.0118103,1
1641,9.07811,-0.42477417,2.0393524,1
1642,9.110428,-0.40802002,2.0549011000000004,1
1643,9.165497,-0.42716980000000004,2.0273743000000004,1
1644,9.09845,-0.47146606,2.0166016,1
1645,9.005081,-0.40322876,2.077652,1
1646,9.114014,-0.40322876,2.065689,1
1647,9.157119999999999,-0.43077087,2.0070189999999997,1
1648,9.045776,-0.46069336,1.9615326000000002,1
1649,9.067337,-0.46308900000000003,1.9639282,1
1650,9.117614999999999,-0.39006042,2.03096,1
1651,9.125992,-0.38407898,2.0561066,1
1652,9.056564,-0.41520690000000005,2.0285645,1
1653,9.050568,-0.4379425,2.0058289,1
1654,9.108032000000001,-0.47146606,2.002243,1
1655,9.123596000000001,-0.48942566,2.022583,1
1656,9.092467999999998,-0.4774475,2.0369568,1
1657,9.075714,-0.42597959999999996,2.0189972,1
1658,9.050568,-0.4379425,2.0237884999999998,1
1659,9.127182000000001,-0.4343567,2.0549011000000004,1
1660,9.103241,-0.48822020000000005,2.0369568,1
1661,9.064941000000001,-0.4379425,2.0908203000000003,1
1662,9.0972595,-0.43554688,2.062088,1
1663,9.099655,-0.41879272,2.0752563000000004,1
1664,9.092467999999998,-0.45111084,2.0836334,1
1665,9.085281,-0.45111084,2.0836334,1
1666,9.084091,-0.40203857,2.093216,1
1667,9.081696,-0.37809753,2.0800476000000003,1
1668,9.081696,-0.41760254,2.0728607,1
1669,9.070922999999999,-0.41400146,2.0525208,1
1670,9.102051,-0.4092102,2.0740662,1
1671,9.074508999999999,-0.42358398,2.0441284,1
1672,9.096069,-0.42118835,2.0453339,1
1673,9.076903999999999,-0.4044342,2.0333557,1
1674,9.067337,-0.39126587,2.0417328,1
1675,9.076903999999999,-0.39724729999999997,2.0788574,1
1676,9.096069,-0.42716980000000004,2.0549011000000004,1
1677,9.038605,-0.44033813,2.0716705,1
1678,9.09845,-0.3876648,2.0944061,1
1679,9.114014,-0.40083313,2.069275,1
1680,9.100845,-0.45710754,2.0632935000000003,1
1681,8.996704,-0.43675232,2.1075744999999997,1
1682,9.116408999999999,-0.40203857,2.1195526,1
1683,9.12001,-0.4451294,2.0249786,1
1684,9.037399,-0.42956543,2.069275,1
1685,9.058945,-0.4379425,2.0740662,1
1686,9.090073,-0.41639709999999996,2.125534,1
1687,9.084091,-0.39964294,2.1518707000000004,1
1688,9.048172000000001,-0.4379425,2.1063842999999998,1
1689,9.066132000000001,-0.42477417,2.0680695,1
1690,9.108032000000001,-0.4439392,2.0632935000000003,1
1691,9.09845,-0.44033813,2.0273743000000004,1
1692,9.0793,-0.3768921,2.065689,1
1693,9.037399,-0.41520690000000005,2.0213928,1
1694,9.081696,-0.3876648,2.0644836,1
1695,9.124786,-0.39485168,2.093216,1
1696,9.076903999999999,-0.4056244,2.065689,1
1697,9.038605,-0.42597959999999996,2.0944061,1
1698,9.039795,-0.41639709999999996,2.0980072,1
1699,9.0972595,-0.4092102,2.0585022,1
1700,9.088882,-0.42956543,2.0920104999999998,1
1701,9.092467999999998,-0.39724729999999997,2.0812378000000002,1
1702,9.085281,-0.35653687,2.0968018,1
1703,9.0577545,-0.36732483,2.0489197,1
1704,9.094864,-0.41520690000000005,2.0273743000000004,1
1705,9.067337,-0.41400146,2.0429381999999996,1
1706,9.072113,-0.40802002,2.0848389,1
1707,9.049377,-0.3876648,2.132721,1
1708,9.055359,-0.35774229999999996,2.1075744999999997,1
1709,9.069733,-0.38407898,2.1004028,1
1710,9.066132000000001,-0.3768921,2.1051787999999996,1
1711,9.038605,-0.41041565,2.1159668,1
1712,9.058945,-0.39485168,2.0632935000000003,1
1713,9.092467999999998,-0.41999817,2.0477295,1
1714,9.135558999999999,-0.46188354,2.0345612,1
1715,9.099655,-0.41520690000000005,2.0632935000000003,1
1716,9.030228,-0.42956543,2.1135712000000004,1
1717,9.121201,-0.40802002,2.086029,1
1718,9.072113,-0.44992065,2.015396,1
1719,9.029022,-0.47146606,2.0393524,1
1720,9.045776,-0.46427917,2.0561066,1
1721,9.090073,-0.4439392,2.117157,1
1722,9.103241,-0.44992065,2.1135712000000004,1
1723,9.054169,-0.4439392,2.0824432,1
1724,9.036209,-0.45231628,2.065689,1
1725,9.108032000000001,-0.52653503,2.0429381999999996,1
1726,9.134369,-0.5037842,2.022583,1
1727,9.118805,-0.44992065,2.0585022,1
1728,9.080505,-0.41160583,2.0513153,1
1729,9.056564,-0.46548462,2.0489197,1
1730,9.110428,-0.43196106,2.0453339,1
1731,9.090073,-0.42237854,2.062088,1
1732,9.080505,-0.43077087,2.0321655,1
1733,9.09845,-0.4487152,2.0441284,1
1734,9.09845,-0.47505188,2.0572968,1
1735,9.121201,-0.47984314,2.0345612,1
1736,9.099655,-0.42597959999999996,1.9364013999999998,1
1737,9.087677000000001,-0.39006042,1.9028778000000002,1
1738,9.096069,-0.41400146,1.9076691000000003,1
1739,9.121201,-0.48104858,1.9759064,1
1740,9.110428,-0.5504760999999999,2.0429381999999996,1
1741,9.1128235,-0.5384979,2.0561066,1
1742,9.085281,-0.54808044,2.0525208,1
1743,9.046982,-0.56604004,2.0345612,1
1744,9.067337,-0.59117126,2.0716705,1
1745,9.115219,-0.6067352,2.1183472,1
1746,9.151123,-0.5169524999999999,2.0944061,1
1747,9.131973,-0.4487152,2.093216,1
1748,9.037399,-0.43315125,2.093216,1
1749,9.015854,-0.39126587,2.070465,1
1750,9.148727000000001,-0.37809753,2.070465,1
1751,9.141556,-0.38887024,2.0477295,1
1752,9.029022,-0.39126587,2.0836334,1
1753,8.991913,-0.3361969,2.1817932,1
1754,8.98114,-0.28352356,2.2165222,1
1755,9.096069,-0.25479126,2.2332764,1
1756,9.036209,-0.289505,2.1829987,1
1757,9.008666999999999,-0.28471375,2.1937714,1
1758,8.993117999999999,-0.32900999999999997,2.1937714,1
1759,9.031417999999999,-0.39724729999999997,2.1997527999999997,1
1760,9.1128235,-0.46907043,2.2560272,1
1761,9.0733185,-0.48822020000000005,2.2488403,1
1762,9.067337,-0.42237854,2.235672,1
1763,9.067337,-0.36732483,2.2021484,1
1764,9.029022,-0.38526917,2.228485,1
1765,9.048172000000001,-0.39126587,2.2105255,1
1766,9.075714,-0.42956543,2.1506805,1
1767,9.056564,-0.33859253,2.093216,1
1768,9.029022,-0.24043274,2.065689,1
1769,9.020645,-0.22486877,2.0273743000000004,1
1770,9.075714,-0.210495,2.0453339,1
1771,9.086487,-0.30865479999999995,2.141098,1
1772,9.0972595,-0.28710938,2.1542664,1
1773,9.084091,-0.29788208,2.1339111,1
1774,9.0733185,-0.22964478,2.1626434,1
1775,9.067337,-0.20092773,2.1710205,1
1776,9.005081,-0.18296814,2.1817932,1
1777,9.011063,-0.23085022,2.2655945,1
1778,9.045776,-0.20930481,2.18898,1
1779,9.014664,-0.17936707,2.2296906,1
1780,9.015854,-0.18536377,2.1973572,1
1781,9.066132000000001,-0.1877594,2.1698303,1
1782,9.0793,-0.21768188,2.1004028,1
1783,9.007477,-0.23443604,2.149475,1
1784,9.062546000000001,-0.22007751,2.203354,1
1785,9.13916,-0.19853210000000002,2.1925812000000002,1
1786,9.011063,-0.25120544,2.1614532000000004,1
1787,9.019455,-0.2571869,2.1734161,1
1788,9.008666999999999,-0.2212677,2.2153167999999996,1
1789,8.970367,-0.210495,2.3410187000000002,1
1790,8.977554,-0.20809937,2.3290405,1
1791,9.001495,-0.17698670000000002,2.3158722000000003,1
1792,9.046982,-0.25239563,2.242859,1
1793,9.0793,-0.30625916,2.1794127999999997,1
1794,9.085281,-0.30387878,2.2069397,1
1795,9.035003999999999,-0.25958252,2.1734161,1
1796,9.039795,-0.22247314,2.1734161,1
1797,9.021835000000001,-0.210495,2.1722259999999998,1
1798,9.093674,-0.25360107,2.1111755000000003,1
1799,9.090073,-0.24520874,2.10997,1
1800,9.038605,-0.24641418,2.1638488999999996,1
1801,9.033813,-0.24281311,2.2105255,1
1802,9.06134,-0.29309082,2.2129211,1
1803,9.092467999999998,-0.32421875,2.1578522,1
1804,9.06015,-0.33259583,2.1770172000000003,1
1805,9.0577545,-0.28471375,2.1770172000000003,1
1806,9.032608,-0.28710938,2.180603,1
1807,9.029022,-0.28112793,2.1937714,1
1808,9.069733,-0.2787323,2.1530762,1
1809,9.044586,-0.27035522,2.1351166,1
1810,9.043396000000001,-0.26795959999999996,2.2021484,1
1811,9.085281,-0.3074646,2.2093353,1
1812,9.067337,-0.29908752,2.1937714,1
1813,9.0182495,-0.31584167,2.1686249,1
1814,9.021835000000001,-0.27633667,2.20813,1
1815,9.07811,-0.31344604,2.1997527999999997,1
1816,9.075714,-0.3146515,2.20813,1
1817,8.991913,-0.30148315,2.2117310000000003,1
1818,9.094864,-0.29548645,2.20813,1
1819,9.12001,-0.30865479999999995,2.1387023999999997,1
1820,9.026627000000001,-0.27514648,2.1434937,1
1821,9.030228,-0.20092773,2.1602478,1
1822,9.019455,-0.17936707,2.2057495,1
1823,9.031417999999999,-0.20930481,2.1841888,1
1824,9.019455,-0.27633667,2.180603,1
1825,9.049377,-0.289505,2.1542664,1
1826,9.088882,-0.29071045,2.1530762,1
1827,9.1128235,-0.29309082,2.125534,1
1828,9.06134,-0.19853210000000002,2.149475,1
1829,9.029022,-0.210495,2.1602478,1
1830,9.015854,-0.25239563,2.1949615000000002,1
1831,9.087677000000001,-0.26437378,2.1937714,1
1832,9.070922999999999,-0.29429626,2.1147614,1
1833,9.067337,-0.30865479999999995,2.1530762,1
1834,9.052963,-0.30865479999999995,2.1674347000000003,1
1835,9.054169,-0.28112793,2.1638488999999996,1
1836,9.080505,-0.33978270000000005,2.125534,1
1837,9.075714,-0.29548645,2.1051787999999996,1
1838,9.051772999999999,-0.28831482,2.1111755000000003,1
1839,9.084091,-0.29429626,2.1470795,1
1840,9.094864,-0.30625916,2.1470795,1
1841,9.031417999999999,-0.27514648,2.1399077999999996,1
1842,9.051772999999999,-0.2787323,2.0980072,1
1843,9.048172000000001,-0.2859192,2.1183472,1
1844,9.050568,-0.29071045,2.1243439,1
1845,9.058945,-0.27754209999999996,2.1554717999999995,1
1846,9.080505,-0.3182373,2.1853943,1
1847,9.06015,-0.30986023,2.1423035,1
1848,9.037399,-0.28352356,2.1315155,1
1849,9.076903999999999,-0.28352356,2.1039886,1
1850,9.147537,-0.29908752,2.1279297,1
1851,9.046982,-0.30865479999999995,2.0764618,1
1852,9.0182495,-0.33021545,2.0824432,1
1853,9.129578,-0.26316833,1.9914551,1
1854,9.07811,-0.26316833,1.9268188000000002,1
1855,9.056564,-0.26556396,1.9735107,1
1856,9.081696,-0.2571869,2.0273743000000004,1
1857,9.103241,-0.28831482,2.0561066,1
1858,9.066132000000001,-0.36611938,2.101593,1
1859,9.020645,-0.34576416,2.117157,1
1860,9.06015,-0.30625916,2.1231383999999998,1
1861,9.131973,-0.27394104,2.0991974,1
1862,9.110428,-0.24880981,2.0872345,1
1863,9.106842,-0.26437378,2.125534,1
1864,9.0577545,-0.28471375,2.1207428,1
1865,9.050568,-0.30506897,2.1231383999999998,1
1866,9.093674,-0.27394104,2.1027985,1
1867,9.084091,-0.25360107,2.0333557,1
1868,9.09845,-0.24043274,2.0465240000000002,1
1869,9.090073,-0.26795959999999996,2.0345612,1
1870,9.096069,-0.28471375,2.0441284,1
1871,9.076903999999999,-0.29548645,2.0549011000000004,1
1872,9.058945,-0.25360107,2.0585022,1
1873,9.0793,-0.29071045,2.10997,1
1874,9.0733185,-0.30625916,2.1207428,1
1875,9.0793,-0.33499146,2.1770172000000003,1
1876,9.084091,-0.34457397,2.1470795,1
1877,9.070922999999999,-0.35055542,2.1817932,1
1878,9.069733,-0.32900999999999997,2.1195526,1
1879,9.043396000000001,-0.35653687,2.1530762,1
1880,9.015854,-0.32421875,2.1853943,1
1881,9.031417999999999,-0.26675415,2.1626434,1
1882,9.0577545,-0.1877594,2.1614532000000004,1
1883,9.081696,-0.20690918,2.1267395000000002,1
1884,9.032608,-0.30506897,2.1363068,1
1885,9.020645,-0.3002777,2.1243439,1
1886,9.134369,-0.30267334,2.1159668,1
1887,9.115219,-0.34098816,2.0034332,1
1888,9.050568,-0.3649292,2.0094147,1
1889,9.085281,-0.30986023,2.0501251,1
1890,9.092467999999998,-0.24760437,2.1183472,1
1891,9.038605,-0.22247314,2.1315155,1
1892,9.033813,-0.25837708,2.1183472,1
1893,9.042191,-0.24043274,2.1159668,1
1894,9.07811,-0.30506897,2.101593,1
1895,9.1128235,-0.29788208,2.1075744999999997,1
1896,9.063736,-0.29788208,2.0668793,1
1897,9.055359,-0.29908752,2.0525208,1
1898,9.086487,-0.3254242,2.0441284,1
1899,9.106842,-0.36132813,2.1231383999999998,1
1900,9.102051,-0.41400146,2.1602478,1
1901,9.06134,-0.3481598,2.1937714,1
1902,9.044586,-0.32421875,2.1722259999999998,1
1903,9.036209,-0.32781982,2.1506805,1
1904,9.025436000000001,-0.3697052,2.1458892999999994,1
1905,9.062546000000001,-0.34576416,2.1817932,1
1906,9.0577545,-0.30148315,2.180603,1
1907,9.067337,-0.31344604,2.1746216,1
1908,9.062546000000001,-0.2607727,2.1231383999999998,1
1909,9.062546000000001,-0.22247314,2.0788574,1
1910,9.041,-0.20570374,2.0189972,1
1911,9.0793,-0.24520874,2.062088,1
1912,9.074508999999999,-0.27035522,2.1363068,1
1913,9.085281,-0.31704712,2.247635,1
1914,9.036209,-0.33978270000000005,2.271576,1
1915,9.046982,-0.33859253,2.3182678,1
1916,9.032608,-0.28352356,2.3314362,1
1917,9.07811,-0.35774229999999996,2.2644043,1
1918,9.056564,-0.3361969,2.1997527999999997,1
1919,9.006287,-0.35653687,2.180603,1
1920,8.960785000000001,-0.3254242,2.1758118,1
1921,9.114014,-0.34098816,2.141098,1
1922,9.154724,-0.33859253,2.0453339,1
1923,9.056564,-0.32182312,2.0393524,1
1924,9.070922999999999,-0.32781982,2.014206,1
1925,9.100845,-0.3002777,2.0716705,1
1926,9.096069,-0.34457397,2.065689,1
1927,9.115219,-0.37570190000000003,2.1542664,1
1928,9.091277999999999,-0.27275085,2.1243439,1
1929,9.0182495,-0.16979979999999997,2.0046234,1
1930,9.043396000000001,-0.13748169,1.9711151000000002,1
1931,9.099655,-0.07522583,2.0429381999999996,1
1932,9.081696,-0.088394165,2.0956116000000002,1
1933,9.066132000000001,-0.114730835,2.1339111,1
1934,9.054169,-0.13388062,2.1770172000000003,1
1935,9.042191,-0.13867188,2.149475,1
1936,8.994308,-0.119522095,2.20813,1
1937,9.014664,-0.16979979999999997,2.3338318,1
1938,9.025436000000001,-0.24880981,2.3565826000000003,1
1939,9.027832,-0.34936523,2.2895355,1
1940,9.064941000000001,-0.37928772,2.1925812000000002,1
1941,9.106842,-0.33259583,2.1734161,1
1942,9.081696,-0.32063293,2.2117310000000003,1
1943,9.007477,-0.31942750000000003,2.1554717999999995,1
1944,8.997894,-0.3984375,2.149475,1
1945,9.063736,-0.3984375,2.0980072,1
1946,9.171478,-0.368515,2.0549011000000004,1
1947,9.159514999999999,-0.30506897,2.0177917,1
1948,9.092467999999998,-0.29190063,2.0094147,1
1949,9.084091,-0.27754209999999996,2.0130157,1
1950,9.052963,-0.29190063,2.0213928,1
1951,9.063736,-0.30387878,2.002243,1
1952,9.090073,-0.24401855,2.0812378000000002,1
1953,9.123596000000001,-0.22845459,2.0585022,1
1954,9.141556,-0.23443604,1.9351958999999999,1
1955,9.0793,-0.23564148,1.9711151000000002,1
1956,9.032608,-0.23324585,2.1231383999999998,1
1957,9.131973,-0.28831482,2.1195526,1
1958,9.124786,-0.3541565,2.0094147,1
1959,9.06015,-0.34338379999999996,2.0094147,1
1960,9.0733185,-0.25598145,2.1183472,1
1961,9.043396000000001,-0.21528625,2.1423035,1
1962,9.041,-0.24162292,2.1291351,1
1963,9.024231,-0.22486877,2.077652,1
1964,9.084091,-0.24162292,2.0908203000000003,1
1965,9.110428,-0.30865479999999995,2.0405425999999998,1
1966,9.0733185,-0.39126587,2.0644836,1
1967,9.080505,-0.45948792,2.0848389,1
1968,9.103241,-0.39126587,2.0884247,1
1969,9.0733185,-0.368515,2.0824432,1
1970,9.052963,-0.29788208,2.0572968,1
1971,9.030228,-0.2715454,2.0273743000000004,1
1972,9.050568,-0.26197815,2.0668793,1
1973,9.049377,-0.29429626,2.0453339,1
1974,9.133179,-0.30387878,2.0728607,1
1975,9.127182000000001,-0.23564148,2.0489197,1
1976,9.09845,-0.27394104,2.038147,1
1977,9.081696,-0.29190063,2.0872345,1
1978,9.07811,-0.34217834,2.1004028,1
1979,9.080505,-0.35534668,2.125534,1
1980,9.037399,-0.25598145,2.1123657000000002,1
1981,9.085281,-0.17338562,2.1243439,1
1982,9.0733185,-0.16740417,2.10878,1
1983,9.042191,-0.21528625,2.132721,1
1984,9.042191,-0.27275085,2.1063842999999998,1
1985,9.045776,-0.289505,2.0561066,1
1986,9.069733,-0.2571869,2.1578522,1
1987,9.054169,-0.31584167,2.0824432,1
1988,9.111618,-0.38049316,2.1123657000000002,1
1989,9.074508999999999,-0.35055542,2.1662445,1
1990,8.984726,-0.2715454,2.1949615000000002,1
1991,9.07811,-0.27035522,2.1758118,1
1992,9.110428,-0.33021545,2.101593,1
1993,9.036209,-0.3481598,2.0405425999999998,1
1994,9.092467999999998,-0.38168335,2.0980072,1
1995,9.036209,-0.33738708,2.1602478,1
1996,9.039795,-0.3146515,2.1782074000000002,1
1997,9.055359,-0.33380127,2.1506805,1
1998,9.0793,-0.38049316,2.1434937,1
1999,9.123596000000001,-0.37928772,2.1303252999999995,1
2000,9.09845,-0.34217834,2.1027985,1
2001,9.042191,-0.29429626,2.1446838,1
2002,9.035003999999999,-0.35176086,2.203354,1
2003,9.030228,-0.42837524,2.2380676,1
2004,9.080505,-0.42716980000000004,2.2596130000000003,1
2005,9.055359,-0.41400146,2.2464447,1
2006,8.996704,-0.3589325,2.2548217999999998,1
2007,8.971558,-0.40802002,2.2775726,1
2008,9.024231,-0.39964294,2.3098907000000004,1
2009,9.088882,-0.43196106,2.2524261,1
2010,9.127182000000001,-0.43554688,2.2021484,1
2011,9.094864,-0.38287354,2.1554717999999995,1
2012,9.025436000000001,-0.36013794,2.1638488999999996,1
2013,9.012267999999999,-0.37928772,2.1901855,1
2014,9.008666999999999,-0.36013794,2.2129211,1
2015,9.051772999999999,-0.33859253,2.1949615000000002,1
2016,9.033813,-0.33021545,2.1758118,1
2017,9.0577545,-0.35774229999999996,2.1829987,1
2018,9.037399,-0.34338379999999996,2.2129211,1
2019,9.048172000000001,-0.3768921,2.2320862,1
2020,9.0182495,-0.4044342,2.2703857000000003,1
2021,9.033813,-0.39604187,2.2883452999999996,1
2022,9.045776,-0.39485168,2.2189178,1
2023,9.048172000000001,-0.41160583,2.2225037,1
2024,8.983536,-0.39724729999999997,2.2344666,1
2025,9.038605,-0.37928772,2.228485,1
2026,9.075714,-0.46548462,2.2332764,1
2027,8.990723,-0.50138855,2.2057495,1
2028,9.012267999999999,-0.45710754,2.2296906,1
2029,9.017059,-0.43315125,2.228485,1
2030,9.030228,-0.40802002,2.196167,1
2031,9.041,-0.43196106,2.203354,1
2032,9.048172000000001,-0.41760254,2.244049,1
2033,9.041,-0.41639709999999996,2.2368622000000005,1
2034,9.013458,-0.41520690000000005,2.2057495,1
2035,9.0577545,-0.41281128,2.1901855,1
2036,9.088882,-0.38526917,2.196167,1
2037,9.032608,-0.34576416,2.1554717999999995,1
2038,8.969161999999999,-0.2966919,2.1734161,1
2039,9.044586,-0.30267334,2.0920104999999998,1
2040,9.114014,-0.30148315,2.0728607,1
2041,9.07811,-0.26316833,2.0501251,1
2042,9.021835000000001,-0.20092773,2.0980072,1
2043,9.067337,-0.23085022,1.9998474,1
2044,9.129578,-0.22605896,2.0465240000000002,1
2045,9.082901,-0.18894958,2.0333557,1
2046,9.104446000000001,-0.22845459,2.0980072,1
2047,9.135558999999999,-0.32421875,2.1602478,1
2048,9.122391,-0.48104858,2.1399077999999996,1
2049,9.027832,-0.5564574999999999,2.1746216,1
2050,9.114014,-0.53730774,2.2775726,1
2051,9.222961,-0.5217438,2.3087006000000003,1
2052,9.183456,-0.41639709999999996,2.1674347000000003,1
2053,8.991913,-0.4379425,2.0333557,1
2054,9.039795,-0.46907043,2.0668793,1
2055,9.185837,-0.45948792,2.03096,1
2056,9.366608,-0.41041565,1.9794922,1
2057,9.195419000000001,-0.25837708,1.7723846,1
2058,9.137955,-0.107543945,1.8035126,1
2059,8.964386,-0.0010070800999999999,1.9208374,1
2060,8.862625,0.026535034,1.8825226000000002,1
2061,8.948822,0.0181427,1.7580261000000001,1
2062,9.088882,-0.057266235,1.5114288,1
2063,9.262466,-0.17459106,1.2887573,1
2064,9.601242,-0.31942750000000003,1.1546936,1
2065,9.784393,-0.51934814,0.99546814,1
2066,9.566528,-0.5325165,0.91885376,1
2067,9.248092999999999,-0.45710754,1.0074463,1
2068,9.152328500000001,-0.45350647,1.1151886,1
2069,8.796783,-0.42358398,1.1331328999999999,1
2070,8.659119,-0.27035522,1.2492523000000002,1
2071,8.613632,-0.112335205,1.3019257,1
2072,9.093674,-0.064453125,1.3689728,1
2073,9.383362,-0.12550354,1.370163,1
2074,9.437241,-0.39964294,1.6143798999999999,1
2075,9.373795,-0.69651794,1.7723846,1
2076,9.123596000000001,-0.87968445,1.9148406999999998,1
2077,9.013458,-0.9000244000000001,1.8298491999999997,1
2078,8.82193,-0.5672302,1.6921843999999997,1
2079,9.014664,-0.3002777,1.6275482,1
2080,9.163101,-0.07522583,1.4072723,1
2081,9.353439,0.08518982,1.2348938,1
2082,9.407303,0.1330719,1.2720032,1
2083,9.318726,-0.030929565,1.3270721,1
2084,9.084091,-0.10874939,1.3222809,1
2085,8.994308,-0.20330810000000002,1.3893127,1
2086,9.031417999999999,-0.21528625,1.3677673000000001,1
2087,9.183456,-0.18296814,1.2923584,1
2088,9.300766000000001,-0.36132813,1.2265167,1
2089,9.333084,-0.55526733,1.1642609,1
2090,9.562927,-0.61990356,1.2181396,1
2091,9.55455,-0.5061798,1.3162994,1
2092,9.323516999999999,-0.37449646,1.3330536,1
2093,9.221756,-0.25837708,1.2612305,1
2094,9.268448,-0.20809937,1.1750336000000001,1
2095,9.175064,-0.21887207,1.1642609,1
2096,9.068527,-0.17698670000000002,1.2732086,1
2097,9.124786,-0.17098999,1.3031311,1
2098,9.169083,-0.18057251,1.3115082,1
2099,9.263657,-0.20570374,1.2672119,1
2100,9.226547,-0.22845459,1.2624207,1
2101,9.194229,-0.24043274,1.2660216999999998,1
2102,9.196625,-0.25239563,1.236084,1
2103,9.249298,-0.2799225,1.2253113000000002,1
2104,9.269638,-0.33499146,1.1941986,1
2105,9.291183,-0.31344604,1.1953888000000001,1
2106,9.322311000000001,-0.30625916,1.1929931999999999,1
2107,9.25528,-0.30986023,1.1427155,1
2108,9.210983,-0.32421875,1.1020203000000002,1
2109,9.304352,-0.26795959999999996,1.1929931999999999,1
2110,9.360626,-0.2212677,1.1977844,1
2111,9.274429,-0.20930481,1.0756836,1
2112,9.110428,-0.22964478,1.0637054,1
2113,9.136764999999999,-0.30625916,1.2133483999999999,1
2114,9.194229,-0.46548462,1.2420806999999998,1
2115,9.363022,-0.5959625,1.1510924999999999,1
2116,9.355835,-0.5097656,1.1941986,1
2117,9.287598,-0.38407898,1.2061614999999999,1
2118,9.251678,-0.33978270000000005,1.1307526,1
2119,9.194229,-0.34457397,1.1499023000000002,1
2120,9.143951,-0.26197815,1.1546936,1
2121,9.203796,-0.22366333,1.1594696000000002,1
2122,9.347458,-0.22964478,1.1810303,1
2123,9.250488,-0.29309082,1.239685,1
2124,9.169083,-0.26675415,1.2372893999999999,1
2125,9.23851,-0.28831482,1.2971496999999999,1
2126,9.282805999999999,-0.2571869,1.2935486,1
2127,9.142746,-0.25239563,1.2600403,1
2128,9.142746,-0.22486877,1.3115082,1
2129,9.183456,-0.16740417,1.4060822,1
2130,9.215775,-0.17578125,1.4647369,1
2131,9.197815,-0.18536377,1.5138245000000001,1
2132,9.212173,-0.22366333,1.4551544,1
2133,9.163101,-0.210495,1.3964996,1
2134,9.165497,-0.093185425,1.4300232,1
2135,9.163101,-0.05607605,1.3977051,1
2136,9.185837,-0.14944458,1.4001006999999999,1
2137,9.17627,-0.17578125,1.4384003,1
2138,9.181061,-0.22726439999999998,1.4384003,1
2139,9.160706,-0.16500854,1.4539642,1
2140,9.12001,-0.09437561,1.5581055,1
2141,9.279221000000001,-0.04649353,1.4719238000000001,1
2142,9.258865,-0.16619873,1.3270721,1
2143,9.250488,-0.34457397,1.2504578000000002,1
2144,9.325911999999999,-0.41879272,1.2899628,1
2145,9.408508,-0.40203857,1.373764,1
2146,9.364212,-0.44154358,1.4228363000000002,1
2147,9.246902,-0.34457397,1.4563598999999998,1
2148,9.183456,-0.25479126,1.5114288,1
2149,9.166687,-0.16142273,1.3964996,1
2150,9.154724,-0.11592102,1.3558044,1
2151,9.17746,-0.07762146,1.3510132,1
2152,9.207397,-0.05368042,1.4024811000000001,1
2153,9.179855,-0.02973938,1.4695281999999998,1
2154,9.1128235,0.014556885,1.5198059,1
2155,9.153519000000001,-0.02734375,1.5760651,1
2156,9.1128235,-0.009384155,1.5868378,1
2157,9.072113,-0.015365601000000001,1.5605011,1
2158,9.148727000000001,0.010971068999999998,1.6191559,1
2159,9.134369,0.019348145,1.5784607,1
2160,9.046982,0.03251648,1.6658477999999999,1
2161,9.1128235,0.008575439,1.8035126,1
2162,9.194229,-0.093185425,1.9136505000000001,1
2163,9.232529,-0.26675415,2.069275,1
2164,9.279221000000001,-0.48223877,2.1291351,1
2165,9.105637,-0.48822020000000005,2.1303252999999995,1
2166,9.032608,-0.41520690000000005,2.1470795,1
2167,9.020645,-0.36611938,2.165039,1
2168,9.025436000000001,-0.2966919,2.2763672,1
2169,9.090073,-0.32063293,2.2931366,1
2170,9.055359,-0.30148315,2.247635,1
2171,8.988327,-0.15303039999999998,2.1949615000000002,1
2172,9.0577545,-0.12669373,2.1674347000000003,1
2173,9.167892,-0.107543945,2.1782074000000002,1
2174,9.122391,-0.10874939,2.132721,1
2175,9.070922999999999,-0.06086731,2.0608978,1
2176,9.063736,0.05406189,1.9878692999999998,1
2177,9.148727000000001,0.17137146,1.9244232,1
2178,9.21936,0.24559021,1.7113342,1
2179,9.099655,0.27911377,1.5988159,1
2180,8.953613,0.34255979999999997,1.6670532,1
2181,8.777633999999999,0.3509369,1.8106995,1
2182,8.758484,0.09715271,1.8513947,1
2183,8.939239500000001,-0.17578125,1.8166808999999997,1
2184,9.123596000000001,-0.39604187,1.9770966,1
2185,9.103241,-0.35176086,2.0130157,1
2186,9.024231,-0.31584167,2.1363068,1
2187,9.023041000000001,-0.30387878,2.2644043,1
2188,8.989517,-0.29908752,2.2931366,1
2189,8.886566,-0.19853210000000002,2.369751,1
2190,8.756088,-0.23922729999999998,2.4355927000000004,1
2191,8.76207,-0.2859192,2.4343872,1
2192,8.903336,-0.32900999999999997,2.3410187000000002,1
2193,9.081696,-0.23683167,2.0812378000000002,1
2194,9.258865,0.016952515,1.7759857,1
2195,9.416885,0.12709045,1.4384003,1
2196,9.355835,0.016952515,1.2205353,1
2197,9.371399,-0.13269043,1.4515686,1
2198,9.304352,-0.34457397,1.6574706999999997,1
2199,9.12001,-0.36611938,1.6562805,1
2200,8.84227,-0.35055542,1.6969756999999999,1
2201,8.854248,-0.30625916,1.7532348999999998,1
2202,8.957199000000001,-0.3469696,1.7161255000000002,1
2203,9.228943,-0.38407898,1.6718292000000001,1
2204,9.4935,-0.45710754,1.6155701,1
2205,9.598846,-0.34457397,1.5198059,1
2206,9.4935,-0.11592102,1.4419861,1
2207,9.304352,0.0061798096,1.339035,1
2208,9.252884,0.02772522,1.2743988000000002,1
2209,9.175064,-0.023742676,1.2947540000000002,1
2210,9.109222,-0.124313354,1.2947540000000002,1
2211,9.129578,-0.19732666,1.3186951,1
2212,9.209793,-0.2571869,1.3294678,1
2213,9.221756,-0.29908752,1.2636261,1
2214,9.197815,-0.25,1.246872,1
2215,9.171478,-0.15782166,1.2839813,1
2216,9.226547,-0.07641601599999999,1.2504578000000002,1
2217,9.245697,-0.078811646,1.2145386,1
2218,9.194229,-0.08241272,1.1834258999999998,1
2219,9.199005,-0.062057495,1.2145386,1
2220,9.311539,-0.13269043,1.2037659,1
2221,9.278015,-0.23443604,1.2181396,1
2222,9.202606,-0.34338379999999996,1.2851715,1
2223,9.278015,-0.39485168,1.2648163000000001,1
2224,9.251678,-0.42358398,1.3115082,1
2225,9.207397,-0.42237854,1.3222809,1
2226,9.189438,-0.38647459999999995,1.3474274,1
2227,9.239716,-0.3649292,1.3282623,1
2228,9.267242,-0.36132813,1.3593903,1
2229,9.230133,-0.36611938,1.2791901,1
2230,9.216965,-0.36132813,1.3067169,1
2231,9.274429,-0.33140564,1.231308,1
2232,9.263657,-0.31704712,1.2516479999999999,1
2233,9.206192,-0.28710938,1.2528534,1
2234,9.179855,-0.31584167,1.3210906999999998,1
2235,9.197815,-0.32063293,1.373764,1
2236,9.206192,-0.32900999999999997,1.3785399999999999,1
2237,9.214569000000001,-0.31225586,1.3773499,1
2238,9.184647,-0.28231812,1.3749542,1
2239,9.189438,-0.25,1.4048767,1
2240,9.187042,-0.27514648,1.4635468,1
2241,9.161896,-0.26556396,1.4671326,1
2242,9.187042,-0.32063293,1.5090332,1
2243,9.200211,-0.3074646,1.4838867,1
2244,9.205002,-0.31105042,1.4455871999999999,1
2245,9.216965,-0.31584167,1.5018463,1
2246,9.183456,-0.32661438,1.4695281999999998,1
2247,9.228943,-0.35176086,1.4946594,1
2248,9.220566,-0.34217834,1.4671326,1
2249,9.169083,-0.3254242,1.4934691999999998,1
2250,9.154724,-0.32661438,1.504242,1
2251,9.21936,-0.30506897,1.4419861,1
2252,9.218169999999999,-0.28112793,1.4599457,1
2253,9.115219,-0.27394104,1.449173,1
2254,9.148727000000001,-0.29788208,1.5006561,1
2255,9.257675,-0.24880981,1.5209961,1
2256,9.181061,-0.24641418,1.3964996,1
2257,9.157119999999999,-0.24043274,1.4264374,1
2258,9.161896,-0.2212677,1.4862823,1
2259,9.172684,-0.23922729999999998,1.5198059,1
2260,9.197815,-0.2571869,1.528183,1
2261,9.201400999999999,-0.27394104,1.5066376,1
2262,9.183456,-0.2571869,1.5186005,1
2263,9.184647,-0.29071045,1.4898833999999999,1
2264,9.17746,-0.27633667,1.4419861,1
2265,9.205002,-0.30267334,1.4551544,1
2266,9.172684,-0.30506897,1.4252319,1
2267,9.193024000000001,-0.31584167,1.4635468,1
2268,9.2313385,-0.31942750000000003,1.4743195,1
2269,9.185837,-0.31105042,1.4300232,1
2270,9.193024000000001,-0.289505,1.4108733999999998,1
2271,9.203796,-0.2966919,1.4443816999999999,1
2272,9.210983,-0.30625916,1.3929138,1
2273,9.210983,-0.33140564,1.4503784,1
2274,9.185837,-0.30387878,1.4874878,1
2275,9.23732,-0.32302856,1.5413513,1
2276,9.203796,-0.28710938,1.5401611000000002,1
2277,9.205002,-0.3002777,1.5269928,1
2278,9.17627,-0.2799225,1.5497284,1
2279,9.160706,-0.27754209999999996,1.5485381999999999,1
2280,9.166687,-0.3002777,1.5760651,1
2281,9.159514999999999,-0.30267334,1.5533295,1
2282,9.201400999999999,-0.29309082,1.5545197,1
2283,9.183456,-0.2859192,1.5928345,1
2284,9.148727000000001,-0.30865479999999995,1.5784607,1
2285,9.210983,-0.26914978,1.5724791999999999,1
2286,9.166687,-0.32421875,1.5712738000000002,1
2287,9.115219,-0.2607727,1.5581055,1
2288,9.206192,-0.289505,1.5904388,1
2289,9.262466,-0.30986023,1.528183,1
2290,9.159514999999999,-0.3589325,1.4659271,1
2291,9.092467999999998,-0.33021545,1.5628966999999998,1
2292,9.160706,-0.20570374,1.5652924,1
2293,9.196625,-0.19013977,1.6263428,1
2294,9.151123,-0.19134521,1.6359253,1
2295,9.185837,-0.16979979999999997,1.6263428,1
2296,9.160706,-0.22366333,1.6443023999999997,1
2297,9.145142,-0.2212677,1.6502838,1
2298,9.075714,-0.28112793,1.6730346999999999,1
2299,9.104446000000001,-0.28231812,1.6083832,1
2300,9.151123,-0.3146515,1.6335297,1
2301,9.167892,-0.33021545,1.552124,1
2302,9.220566,-0.31584167,1.5461426,1
2303,9.245697,-0.29788208,1.5138245000000001,1
2304,9.258865,-0.32781982,1.4790955,1
2305,9.202606,-0.3146515,1.5425415,1
2306,9.133179,-0.26914978,1.6335297,1
2307,9.164291,-0.28231812,1.7245026,1
2308,9.100845,-0.30387878,1.7568359,1
2309,9.110428,-0.28231812,1.8130951000000002,1
2310,9.118805,-0.31942750000000003,1.7831726000000003,1
2311,9.104446000000001,-0.31105042,1.7687988000000001,1
2312,9.134369,-0.28352356,1.7771758999999998,1
2313,9.133179,-0.2715454,1.7879486,1
2314,9.17746,-0.289505,1.7999268,1
2315,9.133179,-0.2607727,1.7664031999999998,1
2316,9.133179,-0.28831482,1.7628173999999999,1
2317,9.146347,-0.26197815,1.7376709,1
2318,9.134369,-0.26675415,1.7041626,1
2319,9.075714,-0.25120544,1.6754303,1
2320,9.0793,-0.25598145,1.670639,1
2321,9.184647,-0.25239563,1.6598663,1
2322,9.230133,-0.26914978,1.6107788,1
2323,9.103241,-0.27633667,1.7101439999999999,1
2324,9.091277999999999,-0.289505,1.7292938000000002,1
2325,9.143951,-0.3768921,1.8142852999999999,1
2326,9.15831,-0.3768921,1.9028778000000002,1
2327,9.149933,-0.33140564,1.7951355,1
2328,9.179855,-0.25,1.804718,1
2329,9.123596000000001,-0.22486877,1.7544403000000002,1
2330,9.124786,-0.23803711,1.7412720000000002,1
2331,9.164291,-0.21289063,1.7233124,1
2332,9.148727000000001,-0.20570374,1.6239471,1
2333,9.131973,-0.18894958,1.6167755,1
2334,9.197815,-0.19134521,1.5988159,1
2335,9.171478,-0.25958252,1.6383208999999999,1
2336,9.161896,-0.3469696,1.6658477999999999,1
2337,9.213379,-0.33259583,1.6646576000000002,1
2338,9.206192,-0.35653687,1.6143798999999999,1
2339,9.13916,-0.34936523,1.5700836,1
2340,9.145142,-0.29309082,1.5700836,1
2341,9.152328500000001,-0.26914978,1.5760651,1
2342,9.153519000000001,-0.21409607,1.5652924,1
2343,9.142746,-0.210495,1.5892334,1
2344,9.197815,-0.22845459,1.5485381999999999,1
2345,9.159514999999999,-0.20809937,1.5198059,1
2346,9.135558999999999,-0.13867188,1.4599457,1
2347,9.143951,-0.100372314,1.4767151,1
2348,9.248092999999999,-0.14825439999999998,1.5952148000000002,1
2349,9.288788,-0.2859192,1.6538848999999998,1
2350,9.246902,-0.5361023,1.7340851000000002,1
2351,9.088882,-0.64505005,1.7891540000000001,1
2352,9.015854,-0.56243896,1.7795715,1
2353,9.036209,-0.38168335,1.7664031999999998,1
2354,9.12001,-0.41400146,1.7185211,1
2355,9.13916,-0.28710938,1.7065582,1
2356,9.090073,-0.14704895,1.6981659,1
2357,9.136764999999999,-0.12310791,1.7017669999999998,1
2358,9.199005,-0.12310791,1.6897887999999999,1
2359,9.12001,-0.16859436,1.6586609,1
2360,9.143951,-0.23803711,1.6526793999999998,1
2361,9.178664999999999,-0.26795959999999996,1.6885986000000002,1
2362,9.263657,-0.3254242,1.686203,1
2363,9.228943,-0.36253357,1.7137299,1
2364,9.189438,-0.39964294,1.6849976000000002,1
2365,9.152328500000001,-0.40322876,1.6143798999999999,1
2366,9.226547,-0.41760254,1.5760651,1
2367,9.203796,-0.42477417,1.473114,1
2368,9.216965,-0.43315125,1.5018463,1
2369,9.263657,-0.33380127,1.5341643999999999,1
2370,9.196625,-0.35176086,1.6191559,1
2371,9.102051,-0.30986023,1.6562805,1
2372,9.127182000000001,-0.27275085,1.7592316000000003,1
2373,9.172684,-0.25360107,1.785553,1
2374,9.111618,-0.25,1.7257080000000002,1
2375,9.151123,-0.29190063,1.7580261000000001,1
2376,9.155914,-0.24880981,1.9184418,1
2377,9.244507,-0.27514648,1.9268188000000002,1
2378,9.166687,-0.24760437,1.9711151000000002,1
2379,9.090073,-0.32302856,2.0082245,1
2380,9.021835000000001,-0.27394104,2.0489197,1
2381,8.995499,-0.13748169,2.1423035,1
2382,9.019455,-0.10874939,2.1554717999999995,1
2383,8.934448,-0.038116455,2.1722259999999998,1
2384,8.966782,-0.016571045,2.1794127999999997,1
2385,9.026627000000001,-0.03930664,2.156662,1
2386,9.06015,-0.07043457,2.1267395000000002,1
2387,9.029022,-0.062057495,2.141098,1
2388,8.886566,-0.03930664,2.2272950000000002,1
2389,8.887772,0.043289185,2.350586,1
2390,8.964386,0.03730774,2.3362274,1
2391,8.994308,-0.01776123,2.2057495,1
2392,9.052963,-0.071640015,2.2464447,1
2393,9.044586,-0.066848755,2.2919312,1
2394,8.953613,-0.05368042,2.369751,1
2395,8.92009,-0.033325195,2.2404632999999996,1
2396,8.916504,-0.07522583,2.0345612,1
2397,8.944030999999999,-0.1015625,1.8178863999999997,1
2398,9.032608,-0.04170227,1.7544403000000002,1
2399,9.032608,-0.02015686,1.7795715,1
2400,9.074508999999999,-0.026138306,1.7556305,1
2401,9.149933,-0.09197998,1.7424621999999999,1
2402,9.159514999999999,-0.13748169,1.7149352999999998,1
2403,9.137955,-0.12669373,1.6742249,1
2404,8.915298,-0.11831665,1.6921843999999997,1
2405,8.865021,-0.15423584,1.6969756999999999,1
2406,9.149933,-0.14465332,1.5928345,1
2407,9.369003,-0.30986023,1.3115082,1
2408,9.49469,-0.4439392,1.1068115,1
2409,9.547363,-0.64863586,0.9595642,1
2410,9.546173,-0.6725769,0.8554076999999999,1
2411,9.392944,-0.6522217,0.8147125,1
2412,9.263657,-0.6414489999999999,0.77760315,1
2413,9.304352,-0.6821594,0.61479187,1
2414,9.346252,-0.6725769,0.44960022,1
2415,9.410903999999999,-0.6187134,0.41009520000000005,1
2416,9.457581,-0.48104858,0.39093018,1
2417,9.481522,-0.3469696,0.39692688,1
2418,9.252884,-0.368515,0.36460876,1
2419,9.196625,-0.51097107,0.33467102,1
2420,9.487518,-0.48942566,0.19342041,1
2421,9.5737,-0.46907043,0.12876892,1
2422,9.449203500000001,-0.38526917,0.15151978,1
2423,9.438431,-0.37449646,0.24009705,1
2424,9.358231,-0.33259583,0.46037292,1
2425,9.258865,-0.44992065,0.6674651999999999,1
2426,9.202606,-0.5720215,0.8434448,1
2427,9.187042,-0.59477234,0.9020995999999999,1
2428,9.299576,-0.6007538,0.9104767,1
2429,9.392944,-0.53970337,0.8254851999999999,1
2430,9.33429,-0.45111084,0.8410492,1
2431,9.313934,-0.36611938,1.0038605,1
2432,9.278015,-0.368515,1.0577239999999999,1
2433,9.313934,-0.46069336,1.160675,1
2434,9.285202,-0.4044342,1.2779846000000001,1
2435,9.142746,-0.2787323,1.4407959,1
2436,9.067337,-0.1877594,1.5796661,1
2437,9.087677000000001,-0.14704895,1.6730346999999999,1
2438,9.063736,-0.06324768,1.7137299,1
2439,9.032608,-0.14346313,1.7173308999999997,1
2440,9.041,-0.15542603,1.9184418,1
2441,9.086487,-0.22845459,1.9028778000000002,1
2442,9.157119999999999,-0.29071045,1.7747803,1
2443,9.128387,-0.37449646,1.7388762999999998,1
2444,9.157119999999999,-0.3481598,1.7903441999999998,1
2445,9.170288000000001,-0.19493103,1.9507598999999998,1
2446,9.240905999999999,-0.16740417,2.0046234,1
2447,9.391739,-0.25,1.8885040000000002,1
2448,9.203796,-0.18057251,1.8669586,1
2449,8.996704,-0.081207275,1.962738,1
2450,8.861435,-0.20330810000000002,1.9711151000000002,1
2451,8.813553,-0.33021545,1.8142852999999999,1
2452,8.884171,-0.38049316,1.8370361000000002,1
2453,8.944030999999999,-0.3697052,1.8478088,1
2454,9.145142,-0.24281311,1.8681641,1
2455,9.006287,-0.16859436,2.0201874,1
2456,8.947617,-0.21887207,2.1638488999999996,1
2457,9.005081,-0.20690918,2.2225037,1
2458,9.081696,-0.23803711,2.3027039,1
2459,9.133179,-0.23564148,2.4176330000000004,1
2460,9.419281,-0.27754209999999996,2.4116364,1
2461,9.663483,-0.109939575,2.2727814,1
2462,9.291183,0.26594543,2.2057495,1
2463,9.011063,0.29348755,2.3517914,1
2464,8.637573,-0.0021972656,2.4224243,1
2465,8.527435,-0.32182312,2.520584,1
2466,8.542999,-0.5935669,2.7803497000000004,1
2467,8.666306,-0.84376526,2.6881714,1
2468,9.00029,-0.8892517,2.5145874,1
2469,8.938049000000001,-0.75756836,2.4858703999999996,1
2470,9.046982,-0.7503966999999999,2.3972778,1
2471,8.97995,-0.6701813,2.520584,1
2472,8.918884,-0.54089355,2.7552185000000002,1
2473,8.869812,-0.42837524,2.8545685,1
2474,8.917694000000001,-0.5792084,2.8737182999999997,1
2475,8.817139,-0.5037842,2.8342132999999996,1
2476,8.847061,-0.43914795,2.809082,1
2477,8.831497,-0.3541565,2.6319122000000004,1
2478,8.782425,-0.21887207,2.5110016,1
2479,8.903336,-0.20809937,2.457138,1
2480,9.199005,-0.18296814,2.484665,1
2481,9.086487,0.012161255,2.4200287,1
2482,9.012267999999999,-0.054870605,2.3493958,1
2483,9.007477,-0.19134521,2.1686249,1
2484,8.958389,-0.34338379999999996,2.1901855,1
2485,9.146347,-0.27394104,2.1303252999999995,1
2486,9.280411,-0.033325195,2.0991974,1
2487,9.17746,0.00019836426,2.0644836,1
2488,9.080505,-0.2715454,2.1542664,1
2489,8.978744500000001,-0.34936523,2.3434142999999996,1
2490,8.82193,-0.22845459,2.4403687,1
2491,8.88298,-0.15303039999999998,2.5552979,1
2492,8.775238,-0.095581055,2.7396545,1
2493,8.818328999999999,-0.105148315,2.8821106,1
2494,8.759674,-0.17098999,2.9467467999999997,1
2495,8.717773,-0.32063293,3.101181,1
2496,8.572922,-0.35534668,3.0748444,1
2497,9.161896,-0.43554688,3.1550446,1
2498,9.272034,-0.49899292,3.0353394000000002,1
2499,9.013458,-0.36732483,2.9479523,1
2500,8.607650999999999,-0.14704895,2.8988647000000003,1
2501,8.479553,-0.15303039999999998,2.8258362,1
2502,8.699814,-0.27394104,2.7348632999999998,1
2503,8.959595,-0.4092102,2.6331024,1
2504,9.239716,-0.49182129999999996,2.5445251,1
2505,9.336685000000001,-0.61990356,2.5660706,1
2506,9.062546000000001,-0.60554504,2.5840302000000004,1
2507,8.817139,-0.49182129999999996,2.5983887,1
2508,8.722565,-0.34217834,2.6797942999999997,1
2509,8.866211,-0.24880981,2.6881714,1
2510,8.960785000000001,-0.26914978,2.60318,1
2511,8.969161999999999,-0.24880981,2.60318,1
2512,8.978744500000001,-0.25479126,2.5648804,1
2513,8.933258,-0.24880981,2.6618347,1
2514,8.911713,-0.34338379999999996,2.7204895000000002,1
2515,8.863831,-0.38168335,2.7336577999999996,1
2516,8.829102,-0.29548645,2.7025452000000003,1
2517,8.936844,-0.1015625,2.6486664,1
2518,8.996704,0.06364441,2.5660706,1
2519,8.936844,-0.03930664,2.5732574,1
2520,8.905716,-0.090789795,2.575653,1
2521,8.953613,-0.15423584,2.6067657000000004,1
2522,8.991913,-0.12550354,2.5732574,1
2523,8.954803,-0.08720398,2.5133972,1
2524,8.934448,-0.08001709,2.5253754,1
2525,8.933258,-0.052474976,2.4104462000000004,1
2526,8.923675999999999,-0.083602905,2.4188232000000003,1
2527,8.92009,-0.109939575,2.4703063999999997,1
2528,8.903336,-0.095581055,2.5241700000000002,1
2529,8.945221,-0.12310791,2.5588837000000004,1
2530,8.965575999999999,-0.13867188,2.6019897000000003,1
2531,8.963181,-0.16021729,2.6163483,1
2532,8.899734500000001,-0.19613647,2.6283263999999997,1
2533,8.887772,-0.23564148,2.6618347,1
2534,8.960785000000001,-0.20930481,2.7181091,1
2535,8.927277,-0.23085022,2.6702117999999997,1
2536,8.90094,-0.289505,2.516983,1
2537,8.993117999999999,-0.29908752,2.3278502999999997,1
2538,9.021835000000001,-0.29548645,2.4355927000000004,1
2539,8.914108,-0.21887207,2.484665,1
2540,8.98114,-0.29071045,2.4260101,1
2541,9.121201,-0.38049316,2.3003082000000004,1
2542,9.130783000000001,-0.50857544,2.1734161,1
2543,9.147537,-0.50857544,2.2236938,1
2544,9.066132000000001,-0.45111084,2.2236938,1
2545,9.050568,-0.40802002,2.1829987,1
2546,9.052963,-0.43675232,2.125534,1
2547,8.966782,-0.47625732,2.0991974,1
2548,9.041,-0.38168335,2.0393524,1
2549,9.099655,-0.31344604,2.0237884999999998,1
2550,9.222961,-0.3074646,1.9854736000000002,1
2551,9.284011999999999,-0.34217834,1.9639282,1
2552,9.215775,-0.3182373,2.0010376,1
2553,9.115219,-0.24641418,1.9699096999999999,1
2554,9.141556,-0.09916687,1.8968964,1
2555,9.084091,0.03251648,1.8945006999999998,1
2556,9.129578,0.16059875,1.9375916000000002,1
2557,9.170288000000001,0.15940857,1.9364013999999998,1
2558,9.171478,0.03251648,1.962738,1
2559,9.159514999999999,-0.057266235,2.0285645,1
2560,9.058945,-0.088394165,2.1434937,1
2561,9.007477,-0.078811646,2.1638488999999996,1
2562,8.896149000000001,-0.08241272,2.321869,1
2563,8.885375999999999,-0.081207275,2.338623,1
2564,9.002686,-0.006988525400000001,2.26799,1
2565,9.055359,0.05166626,2.1985626,1
2566,9.072113,0.050476074,2.2296906,1
2567,9.044586,0.08039856,2.2416534,1
2568,9.0577545,0.115112305,2.2021484,1
2569,9.027832,0.08279419,2.2057495,1
2570,9.064941000000001,0.04808044400000001,2.1159668,1
2571,9.123596000000001,0.033706665,1.9483643,1
2572,9.013458,0.09596252400000001,1.8071136000000003,1
2573,8.971558,0.22644043,1.7771758999999998,1
2574,9.133179,0.34255979999999997,1.8011169999999999,1
2575,9.169083,0.38565063,1.8633727999999998,1
2576,9.096069,0.34735107,1.9794922,1
2577,9.007477,0.16299438,2.1423035,1
2578,8.994308,0.076812744,2.20813,1
2579,9.017059,-0.021362305,2.2943267999999994,1
2580,8.976349,-0.13148499,2.3829192999999997,1
2581,8.966782,-0.22486877,2.501419,1
2582,8.948822,-0.30148315,2.627121,1
2583,8.950012,-0.32781982,2.6570435000000003,1
2584,8.989517,-0.28831482,2.6211395,1
2585,8.964386,-0.25598145,2.5181885,1
2586,8.960785000000001,-0.16500854,2.4559326,1
2587,8.959595,-0.12669373,2.354187,1
2588,9.041,-0.1877594,2.228485,1
2589,9.07811,-0.22605896,2.1829987,1
2590,9.046982,-0.16979979999999997,2.1219482000000003,1
2591,9.00029,-0.16500854,2.0991974,1
2592,9.021835000000001,-0.09916687,2.1291351,1
2593,9.064941000000001,-0.054870605,2.1147614,1
2594,9.116408999999999,-0.09677124,2.1315155,1
2595,9.145142,-0.16740417,2.1470795,1
2596,9.146347,-0.20930481,2.1722259999999998,1
2597,9.106842,-0.24043274,2.2404632999999996,1
2598,9.068527,-0.27394104,2.2404632999999996,1
2599,9.091277999999999,-0.25479126,2.165039,1
2600,9.041,-0.21170044,2.1351166,1
2601,9.001495,-0.14704895,2.1626434,1
2602,9.106842,-0.083602905,2.0848389,1
2603,9.191833500000001,-0.021362305,1.9794922,1
2604,9.115219,-0.04888916,1.9220276,1
2605,9.114014,-0.02494812,2.0046234,1
2606,9.082901,0.012161255,1.9926605,1
2607,9.0733185,0.05166626,2.0118103,1
2608,9.024231,0.026535034,2.0249786,1
2609,9.030228,0.06842041,2.0632935000000003,1
2610,9.110428,0.086380005,2.0189972,1
2611,9.088882,0.081588745,2.0118103,1
2612,9.026627000000001,0.07202148400000001,2.0872345,1
2613,8.991913,0.06602478,2.1817932,1
2614,9.037399,0.028915405,2.2260895,1
2615,9.111618,-0.052474976,2.18898,1
2616,9.072113,-0.08480835,2.204544,1
2617,9.099655,-0.016571045,2.1698303,1
2618,9.046982,-0.023742676,2.0836334,1
2619,8.98114,-0.059661865,2.0680695,1
2620,8.965575999999999,-0.102752686,2.053711,1
2621,9.076903999999999,-0.09197998,2.1195526,1
2622,9.104446000000001,-0.119522095,2.1710205,1
2623,9.068527,-0.11114502,2.1434937,1
2624,9.072113,-0.112335205,2.1135712000000004,1
2625,9.025436000000001,-0.09197998,2.1458892999999994,1
2626,9.084091,-0.08001709,2.1434937,1
2627,9.090073,-0.083602905,2.1542664,1
2628,9.058945,-0.074035645,2.1470795,1
2629,9.044586,-0.01776123,2.1578522,1
2630,9.062546000000001,-0.06564331,2.1530762,1
2631,9.123596000000001,-0.059661865,2.1770172000000003,1
2632,9.062546000000001,-0.074035645,2.1578522,1
2633,8.996704,-0.08720398,2.156662,1
2634,9.111618,-0.09677124,2.148285,1
2635,9.088882,-0.10635376,2.1279297,1
2636,8.988327,-0.114730835,2.1458892999999994,1
2637,8.971558,-0.093185425,2.1973572,1
2638,8.996704,-0.071640015,2.204544,1
2639,9.086487,-0.109939575,2.2572174,1
2640,9.048172000000001,-0.13148499,2.2153167999999996,1
2641,9.046982,-0.13148499,2.2308807,1
2642,9.050568,-0.114730835,2.2189178,1
2643,8.997894,-0.114730835,2.2165222,1
2644,8.953613,-0.11831665,2.242859,1
2645,9.017059,-0.10874939,2.2272950000000002,1
2646,9.07811,-0.13148499,2.2141266,1
2647,9.103241,-0.109939575,2.1662445,1
2648,9.096069,-0.10635376,2.244049,1
2649,9.026627000000001,-0.08958435,2.203354,1
2650,9.00029,-0.11831665,2.1913757,1
2651,9.008666999999999,-0.102752686,2.1973572,1
2652,9.021835000000001,-0.114730835,2.18898,1
2653,9.048172000000001,-0.114730835,2.2272950000000002,1
2654,9.042191,-0.08241272,2.1913757,1
2655,9.052963,-0.093185425,2.2057495,1
2656,9.046982,-0.12669373,2.244049,1
2657,9.044586,-0.121917725,2.242859,1
2658,9.023041000000001,-0.09677124,2.2141266,1
2659,9.020645,-0.11114502,2.2344666,1
2660,9.039795,-0.090789795,2.2189178,1
2661,9.100845,-0.100372314,2.2452544999999997,1
2662,9.069733,-0.16381836,2.2153167999999996,1
2663,8.985930999999999,-0.14465332,2.2260895,1
2664,9.033813,-0.109939575,2.2296906,1
2665,9.122391,-0.12550354,2.2153167999999996,1
2666,8.987122,-0.14585876,2.18779,1
2667,8.985930999999999,-0.119522095,2.2332764,1
2668,9.052963,-0.12550354,2.2344666,1
2669,9.063736,-0.15542603,2.28714,1
2670,9.035003999999999,-0.16619873,2.2883452999999996,1
2671,9.024231,-0.1590271,2.2847443,1
2672,9.007477,-0.14225769,2.2596130000000003,1
2673,9.012267999999999,-0.14704895,2.220108,1
2674,9.045776,-0.16740417,2.2452544999999997,1
2675,9.035003999999999,-0.17578125,2.2332764,1
2676,9.013458,-0.1590271,2.2739716,1
2677,9.043396000000001,-0.119522095,2.2620087000000004,1
2678,9.049377,-0.14106749999999998,2.2655945,1
2679,9.049377,-0.15303039999999998,2.2644043,1
2680,9.021835000000001,-0.14944458,2.2332764,1
2681,9.024231,-0.14944458,2.2536316000000003,1
2682,9.029022,-0.13148499,2.3039092999999995,1
2683,9.027832,-0.15782166,2.2404632999999996,1
2684,9.024231,-0.13388062,2.2691956,1
2685,9.041,-0.14225769,2.2452544999999997,1
2686,9.051772999999999,-0.15184021,2.2536316000000003,1
2687,9.025436000000001,-0.16740417,2.2727814,1
2688,9.014664,-0.13148499,2.2344666,1
2689,9.025436000000001,-0.14106749999999998,2.2572174,1
2690,9.051772999999999,-0.16500854,2.2416534,1
2691,9.063736,-0.15423584,2.2392578,1
2692,9.001495,-0.18894958,2.2703857000000003,1
2693,9.002686,-0.124313354,2.3039092999999995,1
2694,9.103241,-0.15663147,2.2739716,1
2695,9.058945,-0.19013977,2.2236938,1
2696,8.996704,-0.117126465,2.220108,1
2697,9.00029,-0.081207275,2.2895355,1
2698,9.031417999999999,-0.100372314,2.2799682999999997,1
2699,9.036209,-0.15542603,2.3015137,1
2700,9.011063,-0.11592102,2.2943267999999994,1
2701,9.005081,-0.12669373,2.251236,1
2702,9.032608,-0.14585876,2.2631989,1
2703,9.041,-0.18176270000000003,2.2404632999999996,1
2704,9.024231,-0.15782166,2.228485,1
2705,9.031417999999999,-0.13867188,2.2584076,1
2706,9.027832,-0.112335205,2.282364,1
2707,9.054169,-0.10635376,2.2548217999999998,1
2708,9.024231,-0.093185425,2.2691956,1
2709,9.020645,-0.109939575,2.251236,1
2710,9.020645,-0.14465332,2.3134766,1
2711,9.014664,-0.18415833,2.3242493,1
2712,9.020645,-0.18057251,2.3027039,1
2713,9.032608,-0.14944458,2.2883452999999996,1
2714,9.043396000000001,-0.13508606,2.299118,1
2715,9.017059,-0.09677124,2.2859497,1
2716,8.991913,-0.12789917,2.271576,1
2717,9.021835000000001,-0.1590271,2.2751770000000002,1
2718,9.026627000000001,-0.12550354,2.2572174,1
2719,9.049377,-0.15663147,2.2955322,1
2720,8.995499,-0.11592102,2.2727814,1
2721,8.989517,-0.12310791,2.2787627999999995,1
2722,9.015854,-0.15542603,2.3003082000000004,1
2723,9.070922999999999,-0.15663147,2.2739716,1
2724,9.025436000000001,-0.17459106,2.2644043,1
2725,8.957199000000001,-0.12669373,2.2847443,1
2726,9.038605,-0.13148499,2.3314362,1
2727,9.127182000000001,-0.1590271,2.235672,1
2728,8.997894,-0.18655396,2.18779,1
2729,9.001495,-0.14704895,2.2631989,1
2730,9.014664,-0.109939575,2.2883452999999996,1
2731,9.067337,-0.17219543,2.2775726,1
2732,9.013458,-0.20092773,2.2668,1
2733,9.030228,-0.15663147,2.2584076,1
2734,9.008666999999999,-0.112335205,2.2572174,1
2735,9.025436000000001,-0.114730835,2.251236,1
2736,9.020645,-0.105148315,2.2691956,1
2737,9.029022,-0.14704895,2.3003082000000004,1
2738,9.052963,-0.14225769,2.354187,1
2739,9.038605,-0.15303039999999998,2.3481902999999997,1
2740,9.014664,-0.11831665,2.3374175999999998,1
2741,8.975159,-0.121917725,2.311081,1
2742,8.995499,-0.09437561,2.2895355,1
2743,8.982330000000001,-0.10635376,2.2979126,1
2744,9.003891000000001,-0.10635376,2.2919312,1
2745,9.036209,-0.13508606,2.2763672,1
2746,9.0577545,-0.11592102,2.3170776,1
2747,9.043396000000001,-0.121917725,2.2691956,1
2748,9.033813,-0.13029480000000002,2.2967223999999997,1
2749,9.021835000000001,-0.114730835,2.2799682999999997,1
2750,9.026627000000001,-0.14225769,2.2548217999999998,1
2751,9.011063,-0.12908936,2.247635,1
2752,9.017059,-0.14585876,2.290741,1
2753,9.012267999999999,-0.119522095,2.2368622000000005,1
2754,9.039795,-0.12310791,2.2811584,1
2755,9.068527,-0.09437561,2.2967223999999997,1
2756,9.048172000000001,-0.14225769,2.2452544999999997,1
2757,9.0182495,-0.13627625,2.2260895,1
2758,9.015854,-0.15423584,2.28714,1
2759,9.114014,-0.12310791,2.2775726,1
2760,9.080505,-0.17698670000000002,2.2931366,1
2761,8.971558,-0.15423584,2.3015137,1
2762,8.963181,-0.114730835,2.3434142999999996,1
2763,9.069733,-0.105148315,2.3446045,1
2764,8.982330000000001,-0.17098999,2.247635,1
2765,9.006287,-0.14106749999999998,2.2631989,1
2766,9.017059,-0.13627625,2.3027039,1
2767,9.051772999999999,-0.102752686,2.2703857000000003,1
2768,8.989517,-0.14225769,2.2620087000000004,1
2769,8.970367,-0.112335205,2.235672,1
2770,8.975159,-0.14346313,2.228485,1
2771,9.015854,-0.105148315,2.1399077999999996,1
2772,9.049377,-0.14944458,2.1782074000000002,1
