,AccX[m/s^2],AccY[m/s^2],AccZ[m/s^2],label
0,8.429275500000001,-0.7563781999999999,1.0876465,1
1,8.429275500000001,-0.7563781999999999,1.0876465,1
2,8.837494,-0.9646759,1.7460631999999998,1
3,9.404907000000001,-1.0472716999999998,2.282364,1
4,8.405334,-0.44752502,1.6359253,1
5,9.184647,-0.5277251999999999,1.3833313,1
6,9.157119999999999,-0.49301147,0.37417603,1
7,9.464767,-0.7503966999999999,0.68782043,1
8,9.656311,-0.71447754,0.89611816,1
9,9.475539999999999,-0.55166626,0.58366394,1
10,9.267242,-0.5241394,0.33467102,1
11,9.157119999999999,-0.44992065,0.11441040000000001,1
12,9.194229,0.11152649,0.12876892,1
13,7.9145202999999995,-0.5217438,-1.9146729,1
14,9.513855,-0.7815094,-0.8971405000000001,1
15,10.685806,-1.190918,-2.1660767000000005,1
16,8.96199,-0.4451294,-0.10586548,1
17,9.118805,1.7347869999999999,-2.7406769,1
18,9.063736,1.4822083000000001,-2.4066925,1
19,10.002274,-0.14585876,-2.1014252,1
20,8.751297000000001,-0.047698975,-3.8683472,1
21,8.022263,0.40361023,-3.2422638,1
22,7.022689999999999,-0.02494812,-2.8460236,1
23,6.768890400000001,0.09475708,-2.685608,1
24,6.6575622999999995,0.20010376,-2.9274292,1
25,6.202667,0.012161255,-3.693573,1
26,6.8682555999999995,-0.8174286000000001,-4.1376953,1
27,7.689468400000001,-1.0460815,-4.3950653,1
28,7.588913000000001,-1.3465424,-4.2789459999999995,1
29,7.4680023,-0.96946716,-4.515976,1
30,7.2477417,-1.1107178,-4.1185455,1
31,6.663558999999999,-0.68455505,-3.2159271,1
32,6.062607,-1.2603607,-2.4078827,1
33,5.735794,-1.5847626,-3.0531158,1
34,7.238159,-1.5955504999999999,-2.6568756000000002,1
35,6.612075999999999,-1.2878876,-3.144104,1
36,7.623626700000001,-0.680954,-3.3057098,1
37,6.260132,-0.29309082,-3.3260650000000003,1
38,8.138382,-0.53730774,-4.6201324,1
39,9.06015,0.2695465,-4.985244799999999,1
40,9.940017999999998,0.6286621,-4.27536,1
41,8.97995,0.20370483,-4.2933197,1
42,7.226196300000001,1.3469238000000001,-4.5818176,1
43,8.266464,1.1685638,-5.753784,1
44,7.611664,0.8740691999999999,-5.5682373,1
45,8.340698,0.8992157,-5.231841999999999,1
46,9.12001,0.20249939,-4.398666400000001,1
47,9.552155,0.07321167,-4.6237183,1
48,9.099655,1.0213165000000002,-4.403457599999999,1
49,8.966782,1.477417,-4.086212000000001,1
50,9.035003999999999,1.1960906999999998,-4.266983,1
51,9.027832,0.8716735999999999,-4.476471,1
52,9.821503,0.20010376,-3.3128967000000005,1
53,9.882553,0.21687317,-2.2019806,1
54,9.401321000000001,0.1330719,-2.203186,1
55,10.193802,-1.036499,-3.097412,1
56,12.046921000000001,-1.6434326000000001,-3.5738678,1
57,13.245209,-1.0604401,-3.5104065,1
58,13.191345000000002,-0.35295105,-3.5487212999999995,1
59,12.698135,-1.2005005,-2.1253662,1
60,12.111557000000001,-1.4985808999999999,-1.2167663999999998,1
61,10.852203,-0.26437378,-0.7666626,1
62,9.661087,-0.064453125,0.24967957,1
63,8.395752,-0.68814087,1.1499023000000002,1
64,7.8438873,-1.0688171,1.339035,1
65,7.3028107,-0.23922729999999998,1.7915497,1
66,7.9288940000000006,-0.41879272,1.7257080000000002,1
67,8.589691,-0.83657837,1.9507598999999998,1
68,9.167892,-0.37449646,0.8614044,1
69,10.268021000000001,0.76634216,0.49987793,1
70,10.54216,1.2451782,0.4005127,1
71,10.737289,1.0560303,0.78956604,1
72,10.333862,-0.21768188,0.35502625,1
73,9.347458,0.40361023,0.1946106,1
74,8.01268,1.2200316999999998,-0.11424255,1
75,9.169083,0.09596252400000001,0.28559875,1
76,9.750869999999999,0.9243469000000001,0.28320313,1
77,9.037399,0.47543335,0.22573853,1
78,9.029022,0.89801025,0.8230896000000001,1
79,9.367797999999999,0.5736084,1.3749542,1
80,10.153107,0.26235962,1.1918030000000002,1
81,8.702209,-0.6522217,-0.43026733,1
82,7.727767999999999,-0.07641601599999999,-0.028045654,1
83,8.857834,-0.48582458,1.0900421,1
84,8.859039,0.14624023,1.8358459999999999,1
85,9.319916000000001,-0.8581238000000001,2.10878,1
86,9.797562,-0.41281128,1.7580261000000001,1
87,9.420471000000001,-0.06324768,0.99786377,1
88,9.108032000000001,-0.40802002,1.0804749,1
89,9.171478,-0.6330719,0.5992279,1
90,9.305557,-0.47984314,-0.0029144287,1
91,8.740524,-0.41041565,0.55015564,1
92,8.748901,-0.28710938,1.2791901,1
93,9.067337,-0.16859436,1.4001006999999999,1
94,9.082901,0.15342712,1.3450316999999998,1
95,9.477936,0.43952942,1.3462219,1
96,9.591660000000001,0.6729584,1.4455871999999999,1
97,9.228943,0.45149229999999996,1.5796661,1
98,8.751297000000001,0.43354797,1.7700043,1
99,8.435257,0.37727356,1.6024017,1
100,8.607650999999999,0.48860168,1.4683228000000002,1
101,9.06134,0.75675964,1.3749542,1
102,9.525818,0.9483031999999999,1.1534882,1
103,9.711364999999999,0.75675964,1.1666565,1
104,9.542587,0.4766388,1.239685,1
105,8.995499,0.46705627,1.5006561,1
106,8.562149,0.6466217,1.8358459999999999,1
107,8.637573,0.52093506,2.093216,1
108,8.910507,0.14503479,2.0177917,1
109,9.029022,-0.00819397,2.0333557,1
110,9.131973,0.055252075,1.6730346999999999,1
111,8.887772,0.4479065,1.7687988000000001,1
112,8.944030999999999,0.68014526,1.9747008999999998,1
113,9.147537,0.9171753,1.9411773999999997,1
114,9.380966,0.9016113000000001,1.9471741000000002,1
115,9.243300999999999,0.84773254,1.8753357,1
116,8.838683999999999,0.68133545,1.7268982,1
117,8.572922,0.48501587,1.7137299,1
118,8.84227,0.39881897,2.1051787999999996,1
119,9.272034,0.30665588,2.1698303,1
120,9.33548,0.259964,2.0034332,1
121,8.930862,0.25756836,2.0429381999999996,1
122,8.539413,0.21447754,2.290741,1
123,8.702209,0.20010376,2.5277557,1
124,9.171478,0.09475708,2.4703063999999997,1
125,9.282805999999999,0.0181427,1.962738,1
126,8.72377,-0.06803894,1.8753357,1
127,9.052963,0.12469482400000001,2.7157134999999997,1
128,9.33548,0.47184753,3.2196808,1
129,9.050568,0.43234253,3.2328491,1
130,8.660324000000001,-0.02015686,2.8904877,1
131,9.2313385,-0.48223877,3.2256775,1
132,9.250488,-0.59117126,3.5812072999999995,1
133,8.577713000000001,-0.34217834,3.3729095,1
134,8.241333000000001,-0.012969971,2.698944,1
135,7.991134599999999,0.32460022,1.9711151000000002,1
136,8.302383,0.32699585,2.6426849999999997,1
137,8.620819000000001,0.27792358,3.1131439999999997,1
138,8.854248,0.39283752,2.4595337,1
139,8.314362,0.6562041999999999,2.3134766,1
140,7.767272999999999,0.5700073,2.9647064,1
141,7.6703186,0.5532531999999999,3.4722748,1
142,7.655945,0.48980713,3.5440980000000004,1
143,8.045013,0.40481567,3.303482,1
144,9.042191,0.3964386,3.4315796,1
145,10.177048,0.44551086,3.7009277000000003,1
146,9.947205,0.19891357,3.7907104,1
147,8.847061,-0.51934814,3.2328491,1
148,7.818756,-0.79467773,2.8785095000000003,1
149,7.679886,-0.5935669,2.4116364,1
150,7.731369,-0.27035522,2.1686249,1
151,8.358642999999999,-0.18296814,2.5301514,1
152,9.105637,-0.47027588,2.7719727,1
153,9.719757000000001,-0.88446045,2.6235352,1
154,10.063324,-1.1921233999999998,2.3398132,1
155,9.9436035,-0.98861694,2.2799682999999997,1
156,9.190628,-0.5935669,2.3470001,1
157,8.459197999999999,-0.26914978,2.6833801,1
158,8.332305999999999,-0.16740417,2.8102722,1
159,8.400542999999999,-0.014175415,2.8390044999999997,1
160,8.849457000000001,0.11631775,2.9922332999999997,1
161,9.463577,0.17616272,3.1670074,1
162,9.542587,0.076812744,2.8545685,1
163,9.2313385,-0.18296814,2.5720520000000002,1
164,8.914108,-0.07522583,2.4942474,1
165,8.539413,0.14025879,2.575653,1
166,8.529831,0.21687317,2.4391785,1
167,8.82312,0.25277710000000003,2.2644043,1
168,9.151123,0.27671814,2.2703857000000003,1
169,9.206192,0.259964,2.2644043,1
170,9.014664,0.17616272,2.390091,1
171,8.955994,0.12469482400000001,2.6235352,1
172,8.759674,0.11631775,2.7145080000000004,1
173,8.717773,0.14384460000000002,2.7025452000000003,1
174,8.699814,0.038497925,2.776764,1
175,8.642364500000001,-0.09437561,2.879715,1
176,8.666306,-0.24043274,3.0329437,1
177,8.663910000000001,-0.16859436,3.0963898,1
178,8.703415,-0.04170227,3.1071625,1
179,8.726150500000001,0.026535034,2.9611206,1
180,8.774047999999999,0.08518982,2.9287872000000004,1
181,8.802764999999999,0.11631775,2.8426056,1
182,8.787216,0.1845398,2.8102722,1
183,8.775238,0.1725769,2.8581696,1
184,8.782425,0.117507935,2.8509827000000003,1
185,8.672286999999999,0.05645752,2.9898376,1
186,8.705811,0.06364441,2.8988647000000003,1
187,8.674683,0.02532959,2.9252013999999997,1
188,8.790802000000001,-0.038116455,2.9922332999999997,1
189,8.686661,0.0037841796999999997,2.7444305,1
190,8.7812195,0.014556885,2.8018951000000003,1
191,8.857834,0.021743774,2.8306273999999996,1
192,8.770447,0.007369995,2.8737182999999997,1
193,8.782425,-0.00340271,2.738449,1
194,8.845871,0.007369995,2.6522675,1
195,8.916504,0.031311035,2.6462708,1
196,8.905716,-0.02255249,2.6235352,1
197,8.885375999999999,-0.066848755,2.5924072,1
198,8.878189,-0.054870605,2.5983887,1
199,8.950012,-0.088394165,2.6259308,1
200,8.947617,-0.14944458,2.5517119999999998,1
201,8.90094,-0.12071228,2.3362274,1
202,8.946425999999999,-0.18415833,2.4188232000000003,1
203,8.973953,-0.22845459,2.4870605,1
204,8.966782,-0.13508606,2.5540924,1
205,8.903336,0.03251648,2.5780334,1
206,8.898544000000001,0.16059875,2.5385437,1
207,8.862625,0.25398254,2.6007842999999995,1
208,9.027832,0.2515869,2.4667053,1
209,8.826721000000001,0.3509369,2.1949615000000002,1
210,8.96199,0.42156982,2.350586,1
211,9.100845,0.45867920000000006,2.338623,1
212,9.102051,0.43115234,2.3242493,1
213,8.928467,0.5305023,2.2584076,1
214,8.795592999999998,0.34854126,2.3637542999999996,1
215,8.844666,0.20729065,2.5050201000000003,1
216,9.025436000000001,0.15580750000000002,2.5038147,1
217,8.930862,0.10433959999999999,2.651062,1
218,8.7608795,0.064834595,2.6474762000000003,1
219,8.734542999999999,0.02053833,2.5588837000000004,1
220,8.827911,0.088775635,2.6522675,1
221,8.783615,0.11392212,2.7599945,1
222,8.64476,0.1905365,2.8653412,1
223,8.623199000000001,0.31742859999999995,2.9228058,1
224,8.590881,0.41438293,2.8497772,1
225,8.619614,0.42037964,2.8354187,1
226,8.763275,0.49699402,2.809082,1
227,8.753693,0.54966736,2.8150635,1
228,8.890167,0.46228027,2.7839355,1
229,8.947617,0.31263733,2.5983887,1
230,9.033813,0.15580750000000002,2.627121,1
231,8.866211,0.0756073,2.7683868,1
232,8.7417145,-0.083602905,2.9766692999999997,1
233,8.709396,-0.26437378,3.0293427000000004,1
234,8.592087,-0.22726439999999998,2.9287872000000004,1
235,8.697433,-0.09677124,2.982666,1
236,8.82193,0.13905334,2.912033,1
237,9.020645,0.18693542,2.6630402,1
238,9.082901,-0.08001709,2.5313567999999997,1
239,8.959595,-0.289505,2.5253754,1
240,8.868607,-0.20809937,2.6462708,1
241,8.7764435,0.10314941400000001,2.6462708,1
242,8.698624,0.3509369,2.6570435000000003,1
243,8.716583,0.43473816,2.635498,1
244,8.782425,0.49699402,2.575653,1
245,8.875793,0.43115234,2.6295166,1
246,8.82193,0.42515564,2.6809845,1
247,8.808762,0.36410522,2.915619,1
248,8.875793,0.23602295,2.8018951000000003,1
249,8.829102,0.12948608,2.698944,1
250,8.746506,0.17018127,2.8306273999999996,1
251,8.570541,0.14503479,2.9539337000000003,1
252,8.588486,-0.059661865,3.0772247000000004,1
253,8.679474,-0.3697052,3.2663727000000002,1
254,8.815933,-0.5648346,3.2783508,1
255,8.7608795,-0.4379425,3.1610259999999997,1
256,8.734542999999999,-0.14825439999999998,2.8521729,1
257,8.802764999999999,-0.02015686,2.540924,1
258,8.978744500000001,-0.038116455,2.457138,1
259,9.094864,-0.02734375,2.4260101,1
260,9.115219,-0.016571045,2.4343872,1
261,8.997894,-0.021362305,2.4511414,1
262,8.871002,-0.011779785,2.5469207999999997,1
263,8.7213745,0.0049743652,2.7013397,1
264,8.80397,0.062438965,2.7755585,1
265,8.851852000000001,-0.0728302,2.6079712,1
266,8.830307000000001,-0.16021729,2.7911224,1
267,8.807556,-0.121917725,3.0365295,1
268,8.778824,-0.00340271,2.8497772,1
269,8.709396,0.03491211,3.034134,1
270,8.80397,-0.023742676,3.1382904,1
271,8.698624,-0.081207275,3.1442718999999997,1
272,8.574127,-0.047698975,3.003006,1
273,8.662704,0.013366699,2.7588043,1
274,8.759674,0.14384460000000002,2.6738129,1
275,8.809952000000001,0.22164917,2.7468262,1
276,8.7812195,0.4359436,2.9395599999999997,1
277,8.698624,0.5879669,2.9575195,1
278,8.689041,0.5341034,2.8414001,1
279,8.871002,0.44432068,2.8126678,1
280,8.993117999999999,0.34616090000000005,2.6965485,1
281,8.942825,0.22525024,2.4738922000000003,1
282,8.899734500000001,0.13186646,2.4595337,1
283,8.869812,0.107925415,2.5026245,1
284,8.851852000000001,0.107925415,2.5098114,1
285,8.860229499999999,0.18214417,2.4200287,1
286,8.891357000000001,0.24200439999999998,2.4607238999999996,1
287,8.991913,0.31263733,2.627121,1
288,8.881775,0.35453796,2.4595337,1
289,8.82193,0.35572815,2.5229797,1
290,8.707001,0.40242004,2.6738129,1
291,8.7812195,0.38804626,2.7264862,1
292,8.806366,0.46945190000000003,2.7755585,1
293,8.766861,0.47305298,2.6390991,1
294,8.826721000000001,0.40242004,2.5840302000000004,1
295,8.887772,0.31742859999999995,2.540924,1
296,8.972763,0.18334961,2.4152374,1
297,8.916504,0.09715271,2.148285,1
298,8.918884,0.0013885498,2.0345612,1
299,9.084091,0.0181427,2.0477295,1
300,9.092467999999998,0.1330719,2.0585022,1
301,8.984726,0.04808044400000001,2.1039886,1
302,8.966782,-0.13986206,2.125534,1
303,9.209793,-0.29190063,2.3817139,1
304,9.051772999999999,-0.07641601599999999,2.1518707000000004,1
305,8.983536,-0.11352539,2.0944061,1
306,9.006287,-0.28831482,1.9711151000000002,1
307,9.164291,-0.3002777,2.0956116000000002,1
308,9.154724,-0.17936707,1.983078,1
309,9.036209,-0.02015686,2.101593,1
310,8.970367,0.13186646,2.3326416,1
311,8.890167,0.15940857,2.3098907000000004,1
312,8.82312,0.22045898,2.3517914,1
313,8.88298,0.2707367,2.283554,1
314,8.993117999999999,0.19651794,2.3422089,1
315,8.995499,0.11152649,2.4164276,1
316,8.989517,0.050476074,2.402069,1
317,8.997894,0.0037841796999999997,2.3529816,1
318,8.950012,0.062438965,2.2691956,1
319,8.896149000000001,0.24798584,2.2536316000000003,1
320,8.833893,0.43115234,2.3098907000000004,1
321,8.832703,0.4766388,2.3936919999999997,1
322,8.876999,0.4299469,2.4475555,1
323,8.915298,0.43952942,2.4858703999999996,1
324,8.847061,0.37487793,2.5517119999999998,1
325,8.832703,0.36889648,2.441574,1
326,8.922485,0.26715088,2.3170776,1
327,8.96199,0.19293213,2.3769226000000003,1
328,9.017059,0.1953125,2.2153167999999996,1
329,8.833893,0.34616090000000005,2.2117310000000003,1
330,8.88298,0.41319275,2.500229,1
331,8.995499,0.30784607,2.536148,1
332,8.775238,0.050476074,2.354187,1
333,8.730942,0.10673523,2.4918517999999996,1
334,8.835098,0.33059692,2.4391785,1
335,8.836288,0.4191742,2.4954376,1
336,8.855438000000001,0.44551086,2.5983887,1
337,8.955994,0.21087646,2.4798737,1
338,8.927277,0.076812744,2.4319916,1
339,8.754883,0.17855835,2.5948029,1
340,8.686661,0.35214233,2.8557740000000003,1
341,8.728546000000001,0.47065735,2.8665466,1
342,8.657928,0.47305298,2.8102722,1
343,8.717773,0.48143005,2.7528229,1
344,8.745316,0.38565063,2.745636,1
345,8.753693,0.24440002,2.6498717999999997,1
346,8.819533999999999,0.079193115,2.4954376,1
347,8.885375999999999,0.02532959,2.6821900000000003,1
348,8.844666,0.16059875,2.6426849999999997,1
349,8.768051,0.1797638,2.6259308,1
350,8.871002,0.32580566,2.5313567999999997,1
351,8.942825,0.24679565,2.540924,1
352,8.92128,0.13186646,2.666626,1
353,8.90094,0.052871704000000005,2.6343078999999996,1
354,8.874603,0.09236145,2.512207,1
355,8.848267,0.11392212,2.5421294999999997,1
356,8.888962,0.05166626,2.532547,1
357,8.896149000000001,0.09475708,2.4691009999999998,1
358,8.928467,0.14982605,2.44516,1
359,9.003891000000001,0.10433959999999999,2.3517914,1
360,9.017059,-0.00819397,2.3422089,1
361,8.983536,-0.12669373,2.3493958,1
362,8.948822,-0.10635376,2.3122863999999996,1
363,8.930862,-0.13148499,2.4355927000000004,1
364,8.911713,-0.052474976,2.4499512,1
365,8.819533999999999,-0.026138306,2.5086060000000003,1
366,8.799178999999999,0.050476074,2.5145874,1
367,8.876999,0.04447937,2.5995939999999997,1
368,8.970367,0.014556885,2.6498717999999997,1
369,8.850662,-0.04170227,2.3254547000000003,1
370,8.867416,-0.02734375,2.2847443,1
371,8.972763,-0.06086731,2.2631989,1
372,9.003891000000001,-0.11114502,2.326645,1
373,8.965575999999999,-0.09437561,2.409256,1
374,8.908112,-0.14225769,2.314682,1
375,8.972763,-0.19613647,2.1375122,1
376,9.049377,-0.26437378,2.0848389,1
377,9.033813,-0.28471375,2.0668793,1
378,9.012267999999999,-0.21528625,2.0405425999999998,1
379,9.008666999999999,-0.20330810000000002,2.0824432,1
380,8.914108,-0.15663147,2.1674347000000003,1
381,8.880585,-0.13867188,2.3553772,1
382,8.930862,-0.17098999,2.3829192999999997,1
383,8.977554,-0.210495,2.4068604,1
384,8.967972,-0.26437378,2.3374175999999998,1
385,8.915298,-0.13148499,2.3481902999999997,1
386,8.936844,-0.042907715,2.326645,1
387,9.015854,0.03012085,2.2703857000000003,1
388,8.982330000000001,0.009765625,2.3206634999999998,1
389,8.951217999999999,0.012161255,2.2727814,1
390,8.874603,0.12828064,2.220108,1
391,8.938049000000001,0.23602295,2.2883452999999996,1
392,8.959595,0.17736816,2.4308014,1
393,8.916504,0.062438965,2.441574,1
394,8.872208,-0.0021972656,2.330246,1
395,8.965575999999999,-0.0045928955,2.2320862,1
396,8.990723,-0.0021972656,2.165039,1
397,9.00029,-0.05368042,2.20813,1
398,8.953613,-0.0440979,2.2320862,1
399,8.910507,0.026535034,2.2380676,1
400,8.932053,0.13665771,2.3182678,1
401,8.894943,0.1953125,2.3242493,1
402,8.911713,0.076812744,2.2775726,1
403,8.970367,0.03970337,2.2416534,1
404,8.997894,0.0756073,2.2572174,1
405,8.935654,0.107925415,2.335022,1
406,8.879379,0.11152649,2.3649597,1
407,8.933258,0.064834595,2.3170776,1
408,8.886566,0.04208374,2.3242493,1
409,9.0972595,-0.038116455,2.26799,1
410,8.932053,-0.038116455,2.10878,1
411,8.945221,0.0025787354,2.2644043,1
412,9.001495,-0.10635376,2.3254547000000003,1
413,8.924881,-0.1590271,2.4176330000000004,1
414,8.909317,-0.20570374,2.36615,1
415,8.92128,-0.14825439999999998,2.335022,1
416,8.957199000000001,-0.09437561,2.2536316000000003,1
417,8.978744500000001,-0.05607605,2.3182678,1
418,8.939239500000001,-0.054870605,2.429596,1
419,8.875793,-0.018966675,2.429596,1
420,8.856644000000001,-0.006988525400000001,2.4188232000000003,1
421,8.953613,-0.057266235,2.3434142999999996,1
422,8.975159,-0.12550354,2.2691956,1
423,9.035003999999999,-0.08241272,2.2057495,1
424,9.0182495,-0.030929565,2.2272950000000002,1
425,8.976349,-0.006988525400000001,2.283554,1
426,8.904525999999999,0.01574707,2.2979126,1
427,8.903336,-0.04649353,2.3050995,1
428,8.994308,-0.15782166,2.2117310000000003,1
429,9.033813,-0.27035522,2.314682,1
430,9.086487,-0.2787323,2.180603,1
431,9.056564,-0.25,2.053711,1
432,9.042191,-0.15184021,2.0764618,1
433,9.026627000000001,-0.18296814,2.0956116000000002,1
434,8.939239500000001,-0.093185425,2.251236,1
435,8.914108,-0.05847168,2.2739716,1
436,8.897339,0.036102295,2.2332764,1
437,8.935654,0.04808044400000001,2.1626434,1
438,9.033813,0.024139404,2.1458892999999994,1
439,9.051772999999999,-0.071640015,2.1710205,1
440,9.050568,-0.05368042,2.1770172000000003,1
441,9.015854,-0.04888916,2.0991974,1
442,8.9991,-0.03930664,2.0644836,1
443,8.918884,-0.016571045,2.156662,1
444,8.897339,-0.033325195,2.2548217999999998,1
445,8.951217999999999,-0.047698975,2.2727814,1
446,9.015854,-0.095581055,2.2332764,1
447,9.014664,-0.109939575,2.1817932,1
448,8.954803,-0.08480835,2.1782074000000002,1
449,8.965575999999999,-0.06324768,2.148285,1
450,8.881775,-0.078811646,2.290741,1
451,8.833893,-0.11352539,2.2464447,1
452,8.951217999999999,-0.0728302,2.3170776,1
453,9.027832,-0.03691101,2.3948822,1
454,9.013458,-0.08720398,2.2236938,1
455,8.976349,-0.14944458,2.282364,1
456,8.923675999999999,-0.210495,2.2308807,1
457,8.928467,-0.10395813,2.2584076,1
458,8.905716,-0.03213501,2.335022,1
459,8.957199000000001,-0.06564331,2.3446045,1
460,8.958389,-0.014175415,2.2644043,1
461,8.897339,0.01574707,2.2248992999999997,1
462,8.954803,0.03012085,2.271576,1
463,8.964386,0.007369995,2.3565826000000003,1
464,8.924881,-0.03930664,2.3829192999999997,1
465,8.903336,0.03491211,2.4224243,1
466,8.975159,0.026535034,2.307495,1
467,8.958389,0.040893555,2.2165222,1
468,8.906921,-0.06564331,2.1722259999999998,1
469,8.9991,-0.14465332,2.1817932,1
470,8.990723,-0.19613647,2.2153167999999996,1
471,8.995499,-0.11831665,2.3481902999999997,1
472,8.967972,-0.07641601599999999,2.117157,1
473,8.909317,0.0049743652,2.1746216,1
474,8.938049000000001,0.05885315,2.3458099999999997,1
475,8.940445,0.076812744,2.4619293,1
476,8.891357000000001,0.064834595,2.4643097000000003,1
477,8.891357000000001,0.112716675,2.3685455,1
478,8.896149000000001,0.17855835,2.3122863999999996,1
479,8.906921,0.100753784,2.3853150000000003,1
480,8.942825,0.050476074,2.3876953,1
481,9.014664,0.03970337,2.2775726,1
482,8.976349,0.088775635,2.2631989,1
483,8.912903,0.045684814000000004,2.3517914,1
484,8.954803,-0.02015686,2.3936919999999997,1
485,8.942825,0.007369995,2.330246,1
486,8.894943,-0.033325195,2.247635,1
487,8.933258,-0.02973938,2.3098907000000004,1
488,8.905716,0.12348938,2.3601685000000003,1
489,8.797989,0.22285461,2.441574,1
490,8.845871,0.23362732,2.4607238999999996,1
491,8.808762,0.17137146,2.4248047,1
492,8.934448,0.079193115,2.5337523999999996,1
493,8.826721000000001,0.057647705,2.326645,1
494,8.789597,0.14982605,2.615158,1
495,8.894943,0.024139404,2.7097168,1
496,8.861435,-0.08241272,2.7336577999999996,1
497,8.844666,-0.18176270000000003,2.5768432999999997,1
498,8.795592999999998,-0.085998535,2.4439697,1
499,8.847061,-0.030929565,2.5157928,1
500,8.892548,-0.03213501,2.5145874,1
501,8.929672,-0.030929565,2.5098114,1
502,8.861435,-0.04170227,2.457138,1
503,8.885375999999999,-0.0105896,2.4272002999999995,1
504,8.948822,-0.064453125,2.4272002999999995,1
505,8.912903,-0.13029480000000002,2.3984832999999997,1
506,8.839889999999999,-0.14585876,2.3769226000000003,1
507,8.808762,-0.066848755,2.4308014,1
508,8.830307000000001,-0.045303345,2.5038147,1
509,8.830307000000001,-0.03930664,2.5935973999999997,1
510,8.809952000000001,-0.009384155,2.754013,1
511,8.897339,-0.05607605,2.6414948,1
512,8.947617,-0.08001709,2.6007842999999995,1
513,9.037399,-0.105148315,2.595993,1
514,8.972763,-0.19134521,2.244049,1
515,8.989517,-0.15663147,2.247635,1
516,8.976349,-0.24281311,2.2260895,1
517,9.026627000000001,-0.2859192,2.2895355,1
518,8.92009,-0.24520874,2.4308014,1
519,8.898544000000001,-0.17698670000000002,2.441574,1
520,8.945221,-0.14585876,2.4008636,1
521,8.970367,-0.13986206,2.2727814,1
522,9.019455,-0.14825439999999998,2.2272950000000002,1
523,9.036209,-0.2212677,2.2452544999999997,1
524,9.015854,-0.22605896,2.2093353,1
525,9.001495,-0.22605896,2.1339111,1
526,8.955994,-0.24043274,2.1554717999999995,1
527,8.954803,-0.2607727,2.1925812000000002,1
528,8.951217999999999,-0.23922729999999998,2.2153167999999996,1
529,8.967972,-0.18536377,2.2344666,1
530,9.027832,-0.12908936,2.149475,1
531,8.96199,-0.09437561,2.1195526,1
532,8.982330000000001,-0.015365601000000001,2.1075744999999997,1
533,9.025436000000001,-0.02015686,2.0848389,1
534,9.003891000000001,-0.0021972656,2.1446838,1
535,8.896149000000001,-0.100372314,1.9160461,1
536,8.930862,-0.07522583,1.928009,1
537,9.063736,-0.05128479,2.0680695,1
538,9.055359,-0.119522095,2.1375122,1
539,8.899734500000001,-0.08001709,2.2548217999999998,1
540,8.875793,-0.066848755,2.3374175999999998,1
541,8.868607,-0.0010070800999999999,2.330246,1
542,8.890167,0.0037841796999999997,2.3757324,1
543,8.916504,0.036102295,2.362564,1
544,8.90213,0.010971068999999998,2.3015137,1
545,8.896149000000001,-0.02015686,2.3039092999999995,1
546,8.92128,-0.071640015,2.323059,1
547,8.932053,-0.074035645,2.362564,1
548,8.911713,-0.03691101,2.3936919999999997,1
549,8.896149000000001,-0.057266235,2.4284057999999997,1
550,8.906921,-0.026138306,2.4463654,1
551,8.959595,-0.08720398,2.4212189,1
552,8.927277,-0.23564148,2.3613586,1
553,8.916504,-0.30625916,2.26799,1
554,8.963181,-0.38287354,2.2308807,1
555,9.085281,-0.3146515,2.3673553,1
556,9.007477,-0.23922729999999998,2.10997,1
557,8.938049000000001,0.033706665,1.9232330000000002,1
558,9.021835000000001,-0.015365601000000001,2.0764618,1
559,9.084091,-0.13986206,2.2464447,1
560,8.989517,-0.32302856,2.4068604,1
561,8.905716,-0.33380127,2.378128,1
562,8.916504,-0.36132813,2.2165222,1
563,9.049377,-0.36253357,2.374527,1
564,9.007477,-0.3469696,2.5062103,1
565,8.844666,-0.38049316,2.5660706,1
566,8.7608795,-0.29908752,2.501419,1
567,8.7417145,-0.08958435,2.595993,1
568,8.875793,-0.045303345,2.7001494999999998,1
569,9.093674,-0.16500854,2.5552979,1
570,9.234924000000001,-0.18176270000000003,2.3996735,1
571,9.008666999999999,-0.05368042,2.2691956,1
572,8.787216,0.05166626,2.330246,1
573,8.710602,0.083984375,2.6630402,1
574,8.98114,-0.030929565,2.7324677000000004,1
575,8.770447,-0.11352539,2.5349426,1
576,8.756088,-0.12669373,2.488266,1
577,8.608841,-0.03453064,2.3960876,1
578,8.770447,0.110321045,2.675003,1
579,8.830307000000001,0.036102295,2.6642303,1
580,8.778824,-0.00819397,2.6307068,1
581,8.780028999999999,0.012161255,2.6091613999999996,1
582,8.84108,-0.01776123,2.6738129,1
583,8.844666,-0.012969971,2.7181091,1
584,8.851852000000001,-0.050079346,2.8078917999999997,1
585,8.886566,-0.054870605,2.7348632999999998,1
586,8.843475,-0.12908936,2.6331024,1
587,8.8051605,-0.19613647,2.5684662,1
588,8.811157000000001,-0.31584167,2.60318,1
589,8.869812,-0.34576416,2.6378937000000002,1
590,8.884171,-0.2859192,2.6678162,1
591,8.887772,-0.22486877,2.651062,1
592,8.878189,-0.1877594,2.6319122000000004,1
593,8.833893,-0.17098999,2.627121,1
594,8.885375999999999,-0.18536377,2.595993,1
595,8.983536,-0.25479126,2.4367827999999996,1
596,9.001495,-0.33140564,2.4343872,1
597,9.052963,-0.3254242,2.4475555,1
598,8.996704,-0.46069336,2.1626434,1
599,8.92009,-0.44154358,2.203354,1
600,8.939239500000001,-0.368515,2.2775726,1
601,8.987122,-0.22845459,2.335022,1
602,8.843475,-0.18536377,2.4284057999999997,1
603,8.905716,-0.29190063,2.3876953,1
604,8.945221,-0.39964294,2.350586,1
605,8.975159,-0.51815796,2.3206634999999998,1
606,9.031417999999999,-0.5384979,2.26799,1
607,8.990723,-0.48703003,2.2129211,1
608,8.973953,-0.44273376,2.1865845,1
609,8.967972,-0.3589325,2.1794127999999997,1
610,8.991913,-0.36372375,2.1626434,1
611,9.013458,-0.32182312,2.2775726,1
612,8.978744500000001,-0.33859253,2.2931366,1
613,9.032608,-0.39006042,2.2751770000000002,1
614,9.00029,-0.41400146,2.3015137,1
615,8.905716,-0.4056244,2.3039092999999995,1
616,8.936844,-0.34576416,2.3338318,1
617,9.049377,-0.29429626,2.1135712000000004,1
618,9.114014,-0.27754209999999996,2.0213928,1
619,8.965575999999999,-0.23443604,1.8011169999999999,1
620,8.995499,-0.08720398,2.1518707000000004,1
621,9.036209,-0.009384155,2.228485,1
622,8.947617,0.04927063,2.1722259999999998,1
623,8.839889999999999,0.086380005,2.1506805,1
624,8.908112,0.040893555,2.2500305,1
625,8.996704,-0.12789917,2.204544,1
626,9.068527,-0.3002777,2.1027985,1
627,9.076903999999999,-0.289505,2.0417328,1
628,8.991913,-0.17338562,1.9950561999999998,1
629,8.959595,-0.04888916,2.10997,1
630,8.90094,0.014556885,2.2799682999999997,1
631,8.905716,-0.03691101,2.457138,1
632,8.946425999999999,0.028915405,2.4331970000000003,1
633,8.958389,0.055252075,2.4248047,1
634,8.957199000000001,0.13546753,2.4439697,1
635,8.886566,0.14863586,2.4308014,1
636,8.8003845,0.13546753,2.4691009999999998,1
637,8.812347,0.11152649,2.4439697,1
638,8.892548,0.067230225,2.3984832999999997,1
639,8.970367,-0.00340271,2.4104462000000004,1
640,8.92128,-0.085998535,2.0980072,1
641,8.875793,0.06842041,2.244049,1
642,8.965575999999999,0.122299194,2.448761,1
643,8.936844,-0.0045928955,2.611557,1
644,8.790802000000001,-0.100372314,2.5098114,1
645,8.793198,-0.0728302,2.4786835,1
646,8.848267,-0.03691101,2.500229,1
647,8.933258,0.012161255,2.5313567999999997,1
648,8.90213,-0.02734375,2.5241700000000002,1
649,8.868607,0.01574707,2.4439697,1
650,8.873398,-0.00819397,2.484665,1
651,8.862625,0.024139404,2.4906464,1
652,8.863831,0.0061798096,2.453537,1
653,8.866211,0.014556885,2.5026245,1
654,8.860229499999999,0.0181427,2.5145874,1
655,8.849457000000001,-0.00340271,2.5110016,1
656,8.817139,0.028915405,2.5277557,1
657,8.801575,0.08758545,2.5780334,1
658,8.811157000000001,0.055252075,2.5816345000000003,1
659,8.856644000000001,-0.054870605,2.6211395,1
660,8.893753,-0.09916687,2.7731627999999997,1
661,8.904525999999999,-0.18655396,2.5050201000000003,1
662,8.869812,-0.03213501,2.5217742999999997,1
663,8.881775,0.040893555,2.4655151,1
664,8.963181,0.05406189,2.4655151,1
665,8.978744500000001,0.050476074,2.472702,1
666,8.930862,0.0049743652,2.4750977,1
667,8.880585,-0.0440979,2.414032,1
668,8.910507,-0.109939575,2.4044647,1
669,8.936844,-0.13627625,2.3865051,1
670,8.967972,-0.14585876,2.3709412,1
671,8.975159,-0.13508606,2.350586,1
672,8.957199000000001,-0.14346313,2.3948822,1
673,8.894943,-0.16619873,2.4391785,1
674,8.873398,-0.124313354,2.4858703999999996,1
675,8.927277,-0.050079346,2.448761,1
676,8.983536,-0.08241272,2.429596,1
677,8.985930999999999,-0.19972229,2.335022,1
678,8.916504,-0.24880981,2.3170776,1
679,8.932053,-0.13748169,2.242859,1
680,8.990723,-0.14825439999999998,2.077652,1
681,9.039795,-0.05128479,2.2009583,1
682,8.971558,0.013366699,2.1207428,1
683,8.917694000000001,0.03730774,2.1638488999999996,1
684,8.912903,0.08758545,2.2644043,1
685,8.939239500000001,0.038497925,2.2931366,1
686,8.933258,0.0025787354,2.3242493,1
687,8.924881,-0.02734375,2.2416534,1
688,8.947617,-0.040512085,2.2416534,1
689,8.96199,-0.066848755,2.1997527999999997,1
690,8.973953,-0.1015625,2.1746216,1
691,8.993117999999999,-0.10395813,2.1458892999999994,1
692,9.041,-0.08480835,2.0872345,1
693,8.991913,-0.011779785,2.1817932,1
694,8.892548,-0.02734375,2.311081,1
695,8.885375999999999,-0.009384155,2.4188232000000003,1
696,8.879379,-0.04170227,2.4595337,1
697,8.912903,-0.0440979,2.472702,1
698,8.917694000000001,-0.08001709,2.3769226000000003,1
699,8.985930999999999,-0.0440979,2.282364,1
700,8.984726,-0.028533936,2.1985626,1
701,9.013458,-0.052474976,2.1207428,1
702,9.005081,-0.14825439999999998,2.1734161,1
703,9.06134,-0.20570374,2.1231383999999998,1
704,8.973953,-0.119522095,2.0477295,1
705,8.969161999999999,-0.045303345,2.1387023999999997,1
706,8.945221,-0.03453064,2.251236,1
707,8.946425999999999,-0.030929565,2.3841095,1
708,8.910507,-0.064453125,2.453537,1
709,8.912903,-0.02015686,2.4619293,1
710,8.904525999999999,-0.03213501,2.36615,1
711,8.953613,-0.011779785,2.4104462000000004,1
712,8.966782,0.02053833,2.3374175999999998,1
713,8.946425999999999,0.05406189,2.2883452999999996,1
714,8.939239500000001,0.02532959,2.3493958,1
715,8.916504,-0.021362305,2.3972778,1
716,8.899734500000001,-0.081207275,2.4475555,1
717,8.904525999999999,-0.016571045,2.4272002999999995,1
718,8.90213,0.02293396,2.4032592999999998,1
719,8.904525999999999,0.02772522,2.4068604,1
720,8.863831,0.05166626,2.4511414,1
721,8.859039,0.067230225,2.4403687,1
722,8.942825,0.0181427,2.3685455,1
723,8.959595,0.007369995,2.4236145000000002,1
724,8.994308,-0.06564331,2.3553772,1
725,8.912903,-0.026138306,2.2272950000000002,1
726,8.833893,0.10913086,2.3565826000000003,1
727,8.92128,0.03730774,2.4990387000000003,1
728,8.885375999999999,-0.016571045,2.5564880000000003,1
729,8.849457000000001,0.0025787354,2.5564880000000003,1
730,8.886566,0.008575439,2.5337523999999996,1
731,8.853058,0.028915405,2.5181885,1
732,8.908112,0.0049743652,2.4643097000000003,1
733,8.908112,-0.018966675,2.4343872,1
734,8.885375999999999,-0.0045928955,2.3853150000000003,1
735,8.868607,-0.011779785,2.4523467999999995,1
736,8.888962,-0.04649353,2.500229,1
737,8.875793,-0.03213501,2.4978333,1
738,8.861435,-0.00819397,2.4750977,1
739,8.885375999999999,0.031311035,2.4834747000000004,1
740,8.856644000000001,0.036102295,2.4619293,1
741,8.872208,0.021743774,2.5505066000000003,1
742,8.875793,0.031311035,2.5935973999999997,1
743,8.8051605,0.007369995,2.5253754,1
744,8.890167,-0.00340271,2.5385437,1
745,9.008666999999999,-0.006988525400000001,2.5241700000000002,1
746,8.917694000000001,-0.0010070800999999999,2.2691956,1
747,8.946425999999999,0.03970337,2.321869,1
748,8.872208,0.04208374,2.3685455,1
749,8.92009,-0.028533936,2.4499512,1
750,8.926071,0.0025787354,2.4834747000000004,1
751,8.881775,0.0013885498,2.4475555,1
752,8.908112,0.0049743652,2.3709412,1
753,8.940445,-0.00340271,2.3673553,1
754,8.975159,-0.016571045,2.3098907000000004,1
755,8.947617,-0.02494812,2.3194733,1
756,8.90213,0.007369995,2.3290405,1
757,8.891357000000001,-0.03691101,2.3805237,1
758,8.912903,-0.08001709,2.3936919999999997,1
759,8.924881,-0.05847168,2.3733367999999997,1
760,8.906921,-0.03213501,2.3362274,1
761,8.930862,-0.02015686,2.3613586,1
762,8.892548,-0.050079346,2.3458099999999997,1
763,8.90213,-0.03691101,2.350586,1
764,8.914108,-0.021362305,2.326645,1
765,8.983536,-0.0021972656,2.283554,1
766,9.027832,-0.03930664,2.3673553,1
767,9.006287,-0.114730835,2.2057495,1
768,8.893753,-0.095581055,2.0812378000000002,1
769,8.953613,-0.021362305,2.1758118,1
770,8.987122,-0.0105896,2.2608032000000002,1
771,8.958389,-0.03453064,2.2488403,1
772,8.912903,-0.045303345,2.1746216,1
773,8.946425999999999,-0.021362305,2.10997,1
774,9.025436000000001,-0.0045928955,2.1399077999999996,1
775,9.033813,-0.016571045,2.1446838,1
776,8.970367,-0.016571045,2.1267395000000002,1
777,8.936844,-0.030929565,2.1722259999999998,1
778,8.929672,0.02293396,2.2464447,1
779,8.952408,0.01574707,2.3458099999999997,1
780,8.916504,0.0025787354,2.362564,1
781,8.939239500000001,-0.064453125,2.3374175999999998,1
782,8.906921,-0.071640015,2.3134766,1
783,8.982330000000001,-0.12908936,2.2572174,1
784,9.023041000000001,-0.124313354,2.2177124,1
785,8.935654,-0.07641601599999999,2.271576,1
786,8.914108,-0.011779785,2.3003082000000004,1
787,8.966782,0.010971068999999998,2.330246,1
788,9.024231,0.076812744,2.4200287,1
789,8.97995,0.050476074,2.1698303,1
790,8.930862,0.112716675,2.141098,1
791,8.890167,0.09715271,2.228485,1
792,8.908112,0.009765625,2.3996735,1
793,8.945221,-0.054870605,2.5301514,1
794,8.973953,-0.17338562,2.4631195,1
795,8.893753,-0.109939575,2.3805237,1
796,8.880585,0.010971068999999998,2.4008636,1
797,8.967972,0.02772522,2.4343872,1
798,8.970367,-0.006988525400000001,2.4044647,1
799,8.90094,0.07800293,2.378128,1
800,8.927277,0.09475708,2.4367827999999996,1
801,8.940445,0.0756073,2.437973,1
802,8.82193,0.081588745,2.4164276,1
803,8.869812,0.11869812,2.500229,1
804,8.892548,0.03970337,2.5672607000000003,1
805,8.908112,0.07081604,2.4834747000000004,1
806,8.860229499999999,0.09475708,2.532547,1
807,8.832703,0.050476074,2.6019897000000003,1
808,8.932053,0.00019836426,2.4631195,1
809,8.899734500000001,-0.05128479,2.4619293,1
810,8.971558,-0.033325195,2.36615,1
811,8.899734500000001,0.060043335,2.3410187000000002,1
812,8.746506,0.19293213,2.4439697,1
813,8.848267,0.119903564,2.512207,1
814,8.861435,0.11631775,2.619934,1
815,8.838683999999999,0.083984375,2.6055756000000003,1
816,8.845871,0.09954834,2.5445251,1
817,8.824326,0.08279419,2.5660706,1
818,8.897339,-0.014175415,2.6474762000000003,1
819,8.908112,-0.117126465,2.6474762000000003,1
820,8.832703,-0.054870605,2.618744,1
821,8.820724499999999,0.008575439,2.627121,1
822,8.82312,0.060043335,2.6402892999999996,1
823,8.849457000000001,0.06124878,2.6235352,1
824,8.890167,0.045684814000000004,2.5924072,1
825,8.880585,0.02293396,2.5493164,1
826,8.92128,-0.028533936,2.4679108,1
827,8.948822,-0.023742676,2.4511414,1
828,8.911713,-0.023742676,2.501419,1
829,8.879379,-0.014175415,2.4523467999999995,1
830,8.918884,-0.014175415,2.3876953,1
831,8.942825,0.010971068999999998,2.484665,1
832,8.958389,-0.015365601000000001,2.378128,1
833,8.909317,-0.014175415,2.2452544999999997,1
834,8.904525999999999,0.03491211,2.4068604,1
835,8.878189,0.04808044400000001,2.429596,1
836,8.849457000000001,0.062438965,2.5145874,1
837,8.881775,0.107925415,2.5050201000000003,1
838,8.879379,0.086380005,2.4080505000000003,1
839,8.909317,0.03251648,2.3087006000000003,1
840,8.963181,0.0013885498,2.3015137,1
841,8.991913,-0.014175415,2.247635,1
842,8.960785000000001,-0.03930664,2.220108,1
843,8.967972,-0.06086731,2.18898,1
844,8.96199,-0.071640015,2.2536316000000003,1
845,8.939239500000001,-0.03213501,2.2069397,1
846,8.903336,0.008575439,2.2212982000000006,1
847,8.915298,0.076812744,2.2464447,1
848,8.924881,0.08518982,2.3733367999999997,1
849,8.952408,-0.03930664,2.3972778,1
850,8.973953,-0.095581055,2.3278502999999997,1
851,8.994308,-0.03930664,2.2500305,1
852,8.977554,0.012161255,2.2141266,1
853,8.911713,-0.0010070800999999999,2.306305,1
854,9.046982,-0.03691101,2.2799682999999997,1
855,8.966782,-0.015365601000000001,2.2093353,1
856,8.936844,0.08279419,2.4200287,1
857,8.991913,0.0049743652,2.611557,1
858,8.911713,-0.03930664,2.658249,1
859,8.777633999999999,-0.06086731,2.5564880000000003,1
860,8.936844,-0.02494812,2.390091,1
861,8.994308,-0.040512085,2.311081,1
862,8.890167,-0.040512085,2.4595337,1
863,8.82312,-0.045303345,2.5181885,1
864,8.849457000000001,0.0049743652,2.4391785,1
865,8.826721000000001,0.028915405,2.44516,1
866,8.878189,0.03012085,2.5732574,1
867,8.857834,0.036102295,2.5864257999999998,1
868,8.808762,0.076812744,2.5744476,1
869,8.82312,0.11392212,2.5588837000000004,1
870,8.830307000000001,0.10194397,2.5888214,1
871,8.904525999999999,0.07202148400000001,2.563675,1
872,8.851852000000001,0.04447937,2.5816345000000003,1
873,8.926071,0.014556885,2.5828247,1
874,8.951217999999999,-0.038116455,2.4834747000000004,1
875,8.830307000000001,-0.06324768,2.5708618,1
876,8.92128,-0.02015686,2.311081,1
877,8.838683999999999,0.08518982,2.3170776,1
878,8.917694000000001,0.03730774,2.516983,1
879,8.904525999999999,-0.06803894,2.6773987,1
880,8.825516,-0.102752686,2.651062,1
881,8.84108,-0.00819397,2.5313567999999997,1
882,8.844666,0.028915405,2.5265656,1
883,8.863831,-0.016571045,2.5924072,1
884,8.930862,-0.10635376,2.6295166,1
885,8.916504,-0.14465332,2.5385437,1
886,8.914108,-0.15065002,2.493042,1
887,8.917694000000001,-0.13867188,2.493042,1
888,8.92009,-0.09677124,2.4978333,1
889,8.892548,-0.021362305,2.4834747000000004,1
890,8.844666,0.03251648,2.512207,1
891,8.876999,0.06842041,2.4427642999999994,1
892,8.896149000000001,0.10913086,2.3290405,1
893,8.833893,0.12109375,2.362564,1
894,8.861435,0.14384460000000002,2.5732574,1
895,8.890167,0.11152649,2.7803497000000004,1
896,9.019455,-0.014175415,2.6630402,1
897,8.772842,-0.03691101,2.6893768,1
898,8.905716,-0.030929565,2.5038147,1
899,8.826721000000001,-0.014175415,2.4499512,1
900,8.788406,0.04808044400000001,2.539734,1
901,8.903336,-0.01776123,2.7001494999999998,1
902,8.851852000000001,-0.040512085,2.745636,1
903,8.873398,0.009765625,2.539734,1
904,8.88298,0.03970337,2.484665,1
905,8.862625,0.11869812,2.4750977,1
906,8.92128,0.08279419,2.5133972,1
907,8.88298,0.009765625,2.4248047,1
908,8.861435,-0.02255249,2.5098114,1
909,8.867416,0.0013885498,2.560089,1
910,8.861435,-0.006988525400000001,2.5744476,1
911,8.880585,0.00019836426,2.5684662,1
912,8.854248,-0.011779785,2.5971985,1
913,8.815933,0.02772522,2.5373382999999996,1
914,8.818328999999999,0.055252075,2.5684662,1
915,8.849457000000001,-0.00819397,2.6103668,1
916,8.855438000000001,-0.02973938,2.6630402,1
917,8.844666,-0.0021972656,2.7276764,1
918,8.894943,-0.026138306,2.6474762000000003,1
919,8.874603,-0.021362305,2.6259308,1
920,8.987122,-0.015365601000000001,2.5924072,1
921,8.881775,-0.038116455,2.251236,1
922,8.861435,0.050476074,2.3290405,1
923,8.893753,-0.009384155,2.409256,1
924,8.930862,-0.015365601000000001,2.5062103,1
925,8.872208,-0.02015686,2.4954376,1
926,8.832703,0.04927063,2.4523467999999995,1
927,8.875793,0.043289185,2.3889007999999996,1
928,8.934448,0.02772522,2.390091,1
929,8.946425999999999,0.013366699,2.3709412,1
930,8.927277,-0.03930664,2.299118,1
931,8.926071,-0.083602905,2.2859497,1
932,8.972763,-0.11831665,2.3434142999999996,1
933,8.963181,-0.05368042,2.3841095,1
934,8.946425999999999,-0.0440979,2.3470001,1
935,8.906921,-0.03453064,2.3254547000000003,1
936,8.911713,-0.00340271,2.28714,1
937,8.942825,-0.0045928955,2.2739716,1
938,8.978744500000001,-0.030929565,2.2165222,1
939,8.914108,-0.02734375,2.2691956,1
940,8.963181,0.008575439,2.306305,1
941,8.97995,-0.018966675,2.2392578,1
942,9.008666999999999,-0.05368042,2.2272950000000002,1
943,8.936844,-0.100372314,1.9136505000000001,1
944,9.013458,-0.03453064,2.0166016,1
945,9.070922999999999,-0.05368042,2.1626434,1
946,9.002686,-0.028533936,2.2236938,1
947,8.833893,-0.023742676,2.3122863999999996,1
948,8.88298,-0.033325195,2.3182678,1
949,8.964386,-0.014175415,2.3087006000000003,1
950,9.011063,-0.03213501,2.3122863999999996,1
951,9.007477,-0.074035645,2.2727814,1
952,8.977554,-0.105148315,2.2308807,1
953,8.964386,-0.040512085,2.1674347000000003,1
954,8.942825,-0.016571045,2.2069397,1
955,8.933258,-0.0021972656,2.3290405,1
956,8.908112,-0.0010070800999999999,2.4116364,1
957,8.905716,0.008575439,2.4272002999999995,1
958,8.893753,0.012161255,2.4355927000000004,1
959,8.915298,0.012161255,2.4858703999999996,1
960,8.896149000000001,-0.035720825,2.4786835,1
961,8.854248,-0.028533936,2.484665,1
962,8.853058,-0.0440979,2.512207,1
963,8.912903,-0.02255249,2.4834747000000004,1
964,8.972763,-0.04888916,2.5648804,1
965,9.006287,-0.066848755,2.2775726,1
966,8.932053,-0.033325195,2.2021484,1
967,8.922485,0.028915405,2.338623,1
968,8.936844,0.040893555,2.4691009999999998,1
969,8.909317,0.02293396,2.5995939999999997,1
970,8.863831,-0.00340271,2.4595337,1
971,8.872208,0.081588745,2.4523467999999995,1
972,8.866211,0.105529785,2.4619293,1
973,8.924881,0.04447937,2.4643097000000003,1
974,8.875793,0.04208374,2.4427642999999994,1
975,8.857834,0.08039856,2.4427642999999994,1
976,8.863831,0.083984375,2.4547423999999998,1
977,8.891357000000001,0.0756073,2.5145874,1
978,8.868607,0.119903564,2.516983,1
979,8.874603,0.098358154,2.512207,1
980,8.878189,0.0756073,2.4894562000000002,1
981,8.914108,0.08039856,2.5074158,1
982,8.886566,0.052871704000000005,2.457138,1
983,8.872208,0.0756073,2.520584,1
984,8.863831,0.09954834,2.5576935,1
985,8.950012,0.010971068999999998,2.484665,1
986,8.848267,0.0061798096,2.5576935,1
987,8.911713,0.016952515,2.362564,1
988,8.837494,0.14503479,2.354187,1
989,8.771652,0.16419983,2.493042,1
990,8.839889999999999,0.08039856,2.5277557,1
991,8.922485,0.04447937,2.5995939999999997,1
992,8.905716,0.04447937,2.501419,1
993,8.878189,0.08039856,2.4703063999999997,1
994,8.876999,0.081588745,2.4319916,1
995,8.898544000000001,0.031311035,2.441574,1
996,8.933258,0.00019836426,2.3912964,1
997,8.965575999999999,-0.012969971,2.3326416,1
998,8.915298,0.0181427,2.374527,1
999,8.885375999999999,-0.021362305,2.4248047,1
1000,8.897339,0.03730774,2.4080505000000003,1
1001,8.938049000000001,0.03012085,2.4439697,1
1002,8.92009,0.052871704000000005,2.4343872,1
1003,8.917694000000001,-0.00340271,2.4104462000000004,1
1004,8.944030999999999,-0.012969971,2.3601685000000003,1
1005,8.924881,-0.045303345,2.3685455,1
1006,8.904525999999999,0.009765625,2.3865051,1
1007,8.914108,0.024139404,2.362564,1
1008,8.955994,0.05166626,2.3769226000000003,1
1009,9.006287,0.019348145,2.3853150000000003,1
1010,8.868607,0.009765625,2.1446838,1
1011,8.918884,0.05885315,2.2392578,1
1012,8.96199,0.07202148400000001,2.2500305,1
1013,8.969161999999999,0.04927063,2.3290405,1
1014,8.924881,0.026535034,2.362564,1
1015,8.930862,0.012161255,2.283554,1
1016,8.922485,0.033706665,2.2272950000000002,1
1017,8.966782,0.0181427,2.2093353,1
1018,8.993117999999999,0.02532959,2.2404632999999996,1
1019,8.972763,-0.0010070800999999999,2.1602478,1
1020,8.954803,-0.012969971,2.132721,1
1021,8.972763,-0.02015686,2.1351166,1
1022,9.015854,0.0037841796999999997,2.1339111,1
1023,8.993117999999999,0.040893555,2.1794127999999997,1
1024,8.958389,0.00019836426,2.2021484,1
1025,8.951217999999999,0.01574707,2.3015137,1
1026,8.942825,0.014556885,2.2668,1
1027,8.958389,-0.02015686,2.3015137,1
1028,8.945221,0.007369995,2.3314362,1
1029,8.887772,0.06602478,2.44516,1
1030,8.92128,0.040893555,2.4906464,1
1031,8.90094,0.0013885498,2.5612793,1
1032,8.938049000000001,0.00019836426,2.3338318,1
1033,8.923675999999999,0.02053833,2.2500305,1
1034,8.958389,0.033706665,2.2644043,1
1035,8.967972,0.013366699,2.3290405,1
1036,8.910507,0.05645752,2.3493958,1
1037,8.912903,0.045684814000000004,2.390091,1
1038,8.922485,0.055252075,2.362564,1
1039,8.908112,0.07202148400000001,2.3889007999999996,1
1040,8.957199000000001,0.02053833,2.414032,1
1041,8.92009,0.010971068999999998,2.3817139,1
1042,8.934448,0.024139404,2.3374175999999998,1
1043,8.868607,0.062438965,2.414032,1
1044,8.853058,0.08279419,2.5026245,1
1045,8.847061,0.064834595,2.5935973999999997,1
1046,8.867416,0.08039856,2.5265656,1
1047,8.898544000000001,0.07081604,2.5038147,1
1048,8.933258,0.05885315,2.5038147,1
1049,8.90094,0.067230225,2.4236145000000002,1
1050,8.88298,0.093566895,2.448761,1
1051,8.871002,0.09475708,2.4798737,1
1052,8.92128,0.021743774,2.4152374,1
1053,8.92128,0.02772522,2.4583282000000004,1
1054,8.991913,0.02772522,2.4331970000000003,1
1055,8.861435,0.03491211,2.235672,1
1056,8.832703,0.1330719,2.3422089,1
1057,8.871002,0.05885315,2.437973,1
1058,8.915298,0.046875,2.5708618,1
1059,8.899734500000001,0.093566895,2.5349426,1
1060,8.880585,0.13186646,2.512207,1
1061,8.818328999999999,0.12109375,2.5181885,1
1062,8.845871,0.093566895,2.5349426,1
1063,8.88298,0.074417114,2.5229797,1
1064,8.936844,0.052871704000000005,2.5157928,1
1065,8.896149000000001,0.09236145,2.5133972,1
1066,8.875793,0.09715271,2.5588837000000004,1
1067,8.824326,0.12828064,2.5852202999999996,1
1068,8.799178999999999,0.107925415,2.5469207999999997,1
1069,8.837494,0.117507935,2.5900116,1
1070,8.878189,0.055252075,2.5672607000000003,1
1071,8.951217999999999,0.008575439,2.5038147,1
1072,8.983536,-0.06324768,2.4164276,1
1073,9.024231,-0.12071228,2.3924866000000002,1
1074,9.008666999999999,-0.10874939,2.369751,1
1075,8.989517,-0.1015625,2.311081,1
1076,9.024231,-0.016571045,2.437973,1
1077,8.967972,-0.018966675,2.3050995,1
1078,8.927277,0.031311035,2.2153167999999996,1
1079,8.909317,0.021743774,2.3493958,1
1080,8.838683999999999,0.1510315,2.5062103,1
1081,8.818328999999999,0.15342712,2.5720520000000002,1
1082,8.790802000000001,0.1330719,2.6462708,1
1083,8.807556,0.14982605,2.4547423999999998,1
1084,8.865021,0.18574524,2.429596,1
1085,8.929672,0.20130920000000002,2.4667053,1
1086,8.928467,0.25277710000000003,2.5349426,1
1087,8.916504,0.37010193,2.4607238999999996,1
1088,8.857834,0.38206482,2.5241700000000002,1
1089,8.837494,0.41198729999999995,2.5313567999999997,1
1090,8.829102,0.4191742,2.548111,1
1091,8.813553,0.38685608,2.5469207999999997,1
1092,8.806366,0.33059692,2.5038147,1
1093,8.875793,0.34495544,2.4260101,1
1094,8.939239500000001,0.33537292,2.369751,1
1095,8.908112,0.38925170000000003,2.3398132,1
1096,8.8051605,0.41198729999999995,2.3015137,1
1097,8.848267,0.44192505,2.3158722000000003,1
1098,8.92009,0.38565063,2.28714,1
1099,9.067337,0.33299255,2.2608032000000002,1
1100,8.903336,0.31982422,1.9579468,1
1101,8.941635,0.35812378,2.1770172000000003,1
1102,8.970367,0.42037964,2.3338318,1
1103,8.92128,0.4658661,2.409256,1
1104,8.836288,0.43115234,2.496643,1
1105,8.820724499999999,0.38327026,2.5445251,1
1106,8.814743,0.3497467,2.5624847,1
1107,8.856644000000001,0.28988647,2.5038147,1
1108,8.923675999999999,0.24559021,2.4152374,1
1109,8.941635,0.1797638,2.3087006000000003,1
1110,8.965575999999999,0.14624023,2.2296906,1
1111,8.967972,0.10314941400000001,2.1901855,1
1112,8.951217999999999,0.07800293,2.283554,1
1113,8.977554,0.06842041,2.3278502999999997,1
1114,8.958389,0.060043335,2.414032,1
1115,8.884171,0.14743042,2.488266,1
1116,8.853058,0.19891357,2.5935973999999997,1
1117,8.848267,0.24798584,2.6175384999999998,1
1118,8.861435,0.29109192,2.6714172,1
1119,8.872208,0.23123169,2.6546478,1
1120,8.875793,0.24200439999999998,2.6331024,1
1121,8.904525999999999,0.19293213,2.5864257999999998,1
1122,8.950012,0.15580750000000002,2.5469207999999997,1
1123,8.910507,0.04808044400000001,2.2536316000000003,1
1124,8.912903,0.069625854,2.3027039,1
1125,8.878189,0.13546753,2.4906464,1
1126,8.830307000000001,0.17855835,2.659439,1
1127,8.832703,0.16659546,2.5924072,1
1128,8.8003845,0.25756836,2.5995939999999997,1
1129,8.784821,0.37608337,2.6642303,1
1130,8.836288,0.45988464,2.7228851,1
1131,8.775238,0.45748900000000003,2.7324677000000004,1
1132,8.76207,0.38206482,2.611557,1
1133,8.784821,0.27792358,2.5935973999999997,1
1134,8.818328999999999,0.26834106,2.6283263999999997,1
1135,8.795592999999998,0.2635498,2.6953582999999997,1
1136,8.750107,0.2695465,2.7037354,1
1137,8.759674,0.2922821,2.7025452000000003,1
1138,8.794388,0.31982422,2.6809845,1
1139,8.808762,0.34616090000000005,2.6450806,1
1140,8.848267,0.3677063,2.666626,1
1141,8.845871,0.36531067,2.7300720000000003,1
1142,8.827911,0.31263733,2.6965485,1
1143,8.856644000000001,0.299469,2.6821900000000003,1
1144,8.891357000000001,0.30545044,2.6654357999999996,1
1145,8.935654,0.29588318,2.595993,1
1146,8.809952000000001,0.35333252,2.4559326,1
1147,8.780028999999999,0.35453796,2.6103668,1
1148,8.80397,0.29707336,2.6953582999999997,1
1149,8.769257000000001,0.25875854,2.7348632999999998,1
1150,8.788406,0.23960876,2.7001494999999998,1
1151,8.796783,0.25875854,2.666626,1
1152,8.831497,0.20130920000000002,2.579239,1
1153,8.887772,0.13067627,2.5241700000000002,1
1154,8.827911,0.09596252400000001,2.4583282000000004,1
1155,8.768051,0.1905365,2.5110016,1
1156,8.757278,0.30784607,2.5181885,1
1157,8.936844,0.31742859999999995,2.5157928,1
1158,9.055359,0.26715088,2.414032,1
1159,9.038605,0.24679565,2.3805237,1
1160,8.934448,0.28271484,2.3793182,1
1161,8.936844,0.25875854,2.4068604,1
1162,8.940445,0.28749084,2.4080505000000003,1
1163,8.940445,0.25277710000000003,2.3398132,1
1164,8.97995,0.15701294,2.2895355,1
1165,8.914108,0.20610046,2.306305,1
1166,8.926071,0.24919128,2.2404632999999996,1
1167,8.978744500000001,0.21566772,2.2847443,1
1168,9.087677000000001,0.19412231,2.2093353,1
1169,8.890167,0.16419983,1.9890747,1
1170,8.954803,0.17018127,2.1399077999999996,1
1171,9.008666999999999,0.19172668,2.1722259999999998,1
1172,8.954803,0.16897583,2.3134766,1
1173,8.911713,0.25756836,2.3936919999999997,1
1174,8.843475,0.34016418,2.429596,1
1175,8.832703,0.38804626,2.457138,1
1176,8.849457000000001,0.3904419,2.4631195,1
1177,8.879379,0.33776855,2.4499512,1
1178,8.885375999999999,0.2922821,2.330246,1
1179,8.894943,0.24320984,2.3374175999999998,1
1180,8.954803,0.22285461,2.3601685000000003,1
1181,8.993117999999999,0.1618042,2.2727814,1
1182,8.954803,0.18814087,2.2500305,1
1183,8.896149000000001,0.13905334,2.3314362,1
1184,8.872208,0.16299438,2.4044647,1
1185,8.879379,0.20729065,2.4475555,1
1186,8.917694000000001,0.26594543,2.44516,1
1187,8.910507,0.2803192,2.3936919999999997,1
1188,8.92009,0.31143188,2.3876953,1
1189,8.878189,0.23721313,2.44516,1
1190,8.90213,0.24440002,2.4822693,1
1191,8.985930999999999,0.2922821,2.4643097000000003,1
1192,8.832703,0.32341003,2.3865051,1
1193,8.845871,0.23841858,2.512207,1
1194,8.84227,0.22525024,2.5445251,1
1195,8.812347,0.25637817,2.6642303,1
1196,8.807556,0.2695465,2.7659912,1
1197,8.801575,0.32699585,2.7875366,1
1198,8.825516,0.39762878,2.6367035,1
1199,8.862625,0.36650085,2.477478,1
1200,8.923675999999999,0.35333252,2.354187,1
1201,8.917694000000001,0.28749084,2.3134766,1
1202,8.918884,0.29109192,2.3876953,1
1203,8.884171,0.36889648,2.378128,1
1204,8.905716,0.29707336,2.4308014,1
1205,8.873398,0.22285461,2.595993,1
1206,8.802764999999999,0.19770813,2.6833801,1
1207,8.763275,0.2815094,2.7264862,1
1208,8.832703,0.3102417,2.797104,1
1209,8.851852000000001,0.34016418,2.6893768,1
1210,8.806366,0.37249756,2.627121,1
1211,8.818328999999999,0.29109192,2.6402892999999996,1
1212,8.808762,0.2515869,2.7839355,1
1213,8.830307000000001,0.2803192,2.895279,1
1214,8.862625,0.26475525,2.6714172,1
1215,8.690247,0.24200439999999998,2.148285,1
1216,8.730942,0.20489502,2.1901855,1
1217,8.946425999999999,0.17616272,2.7013397,1
1218,8.942825,0.21806335,3.082016,1
1219,8.787216,0.22644043,3.0927887000000003,1
1220,8.757278,0.30186462,2.8821106,1
1221,8.740524,0.25398254,2.8198547,1
1222,8.794388,0.3796692,2.8126678,1
1223,8.825516,0.36410522,2.8378143,1
1224,8.7608795,0.3497467,2.7791595,1
1225,8.759674,0.33537292,2.7839355,1
1226,8.748901,0.34136963,2.8916779,1
1227,8.806366,0.24320984,2.871338,1
1228,8.793198,0.18693542,2.888092,1
1229,8.799178999999999,0.19172668,2.8821106,1
1230,8.739319,0.25277710000000003,2.9108276,1
1231,8.747711,0.30065918,2.9048462,1
1232,8.738128999999999,0.35572815,2.879715,1
1233,8.726150500000001,0.4407196,2.809082,1
1234,8.789597,0.46705627,2.8210450000000002,1
1235,8.7656555,0.38206482,2.8533783,1
1236,8.736938,0.27552795,2.9180145,1
1237,8.7812195,0.25637817,3.0090027000000004,1
1238,8.711791999999999,0.26115417,2.8665466,1
1239,8.730942,0.29826355,2.8629456,1
1240,8.826721000000001,0.2803192,2.8294373,1
1241,8.7417145,0.30426025,2.8653412,1
1242,8.763275,0.33299255,2.915619,1
1243,8.8051605,0.38327026,2.9228058,1
1244,8.807556,0.31263733,2.9084472999999997,1
1245,8.778824,0.33299255,2.8485869999999998,1
1246,8.806366,0.32699585,2.7492217999999995,1
1247,8.833893,0.36291504,2.7252807999999997,1
1248,8.787216,0.37487793,2.7492217999999995,1
1249,8.795592999999998,0.34495544,2.7612,1
1250,8.807556,0.28509520000000005,2.7731627999999997,1
1251,8.769257000000001,0.338974,2.8306273999999996,1
1252,8.7812195,0.35812378,2.8222504,1
1253,8.758484,0.38206482,2.8282317999999997,1
1254,8.770447,0.38685608,2.8198547,1
1255,8.802764999999999,0.34136963,2.7396545,1
1256,8.801575,0.32939148,2.7025452000000003,1
1257,8.799178999999999,0.28988647,2.7707672000000003,1
1258,8.806366,0.3102417,2.776764,1
1259,8.896149000000001,0.32939148,2.769577,1
1260,8.894943,0.29826355,2.7719727,1
1261,8.807556,0.30903625,2.4523467999999995,1
1262,8.777633999999999,0.299469,2.5181885,1
1263,8.862625,0.31982422,2.6163483,1
1264,8.880585,0.32460022,2.697754,1
1265,8.806366,0.33537292,2.6343078999999996,1
1266,8.839889999999999,0.2922821,2.5684662,1
1267,8.829102,0.35812378,2.4834747000000004,1
1268,8.835098,0.35453796,2.4822693,1
1269,8.869812,0.3964386,2.5828247,1
1270,8.880585,0.37608337,2.6079712,1
1271,8.786011,0.36170959999999996,2.7169037,1
1272,8.769257000000001,0.37129209999999996,2.7408447,1
1273,8.774047999999999,0.37487793,2.706131,1
1274,8.844666,0.3904419,2.6450806,1
1275,8.859039,0.35693359999999996,2.6546478,1
1276,8.880585,0.30545044,2.6941528,1
1277,8.839889999999999,0.33418274,2.754013,1
1278,8.888962,0.34495544,2.7743683,1
1279,8.860229499999999,0.23602295,2.6283263999999997,1
1280,8.844666,0.24200439999999998,2.516983,1
1281,8.84108,0.30426025,2.4738922000000003,1
1282,8.851852000000001,0.42515564,2.5133972,1
1283,8.84108,0.37129209999999996,2.7408447,1
1284,8.815933,0.38685608,2.5253754,1
1285,8.702209,0.45030212,2.6343078999999996,1
1286,8.759674,0.49938965,2.8210450000000002,1
1287,8.769257000000001,0.5065613,2.9204102,1
1288,8.7608795,0.45628357,2.9228058,1
1289,8.806366,0.48143005,2.8450012000000005,1
1290,8.809952000000001,0.46466064,2.7911224,1
1291,8.797989,0.42037964,2.7623901,1
1292,8.786011,0.37249756,2.7599945,1
1293,8.787216,0.34854126,2.7336577999999996,1
1294,8.7812195,0.38087463,2.8018951000000003,1
1295,8.787216,0.3796692,2.831833,1
1296,8.74292,0.37368774,2.7779540000000003,1
1297,8.782425,0.34854126,2.7612,1
1298,8.797989,0.38446045,2.7588043,1
1299,8.774047999999999,0.38087463,2.8186646,1
1300,8.7417145,0.3509369,2.8593597,1
1301,8.768051,0.37608337,2.8545685,1
1302,8.758484,0.33776855,2.8258362,1
1303,8.748901,0.37368774,2.923996,1
1304,8.797989,0.34854126,2.923996,1
1305,8.849457000000001,0.34376526,2.9132233,1
1306,8.778824,0.33537292,2.982666,1
1307,8.791992,0.3282013,2.6642303,1
1308,8.678268,0.43354797,2.6857757999999996,1
1309,8.728546000000001,0.39283752,2.7731627999999997,1
1310,8.797989,0.31622314,2.8437957999999997,1
1311,8.780028999999999,0.34255979999999997,2.879715,1
1312,8.7764435,0.3904419,2.8904877,1
1313,8.717773,0.43952942,2.8940735,1
1314,8.690247,0.42755127,2.9144287,1
1315,8.697433,0.40960693,2.9575195,1
1316,8.758484,0.41319275,2.9060516,1
1317,8.774047999999999,0.38685608,2.8821106,1
1318,8.808762,0.32341003,2.8390044999999997,1
1319,8.768051,0.33418274,2.8581696,1
1320,8.802764999999999,0.35693359999999996,2.7528229,1
1321,8.82193,0.39283752,2.745636,1
1322,8.795592999999998,0.36650085,2.7480316000000005,1
1323,8.813553,0.37368774,2.7516173999999998,1
1324,8.8003845,0.37727356,2.7599945,1
1325,8.824326,0.32101440000000003,2.7228851,1
1326,8.835098,0.33178709999999995,2.7097168,1
1327,8.814743,0.40242004,2.7791595,1
1328,8.808762,0.417984,2.7791595,1
1329,8.807556,0.39404297,2.8821106,1
1330,8.874603,0.34376526,2.6905669999999997,1
1331,8.710602,0.3677063,2.5445251,1
1332,8.754883,0.38087463,2.706131,1
1333,8.820724499999999,0.46705627,2.7899323,1
1334,8.783615,0.42636108,2.7815552,1
1335,8.787216,0.41198729999999995,2.7492217999999995,1
1336,8.7764435,0.43234253,2.7097168,1
1337,8.791992,0.43952942,2.6259308,1
1338,8.82193,0.47305298,2.6498717999999997,1
1339,8.860229499999999,0.40600586,2.5744476,1
1340,8.894943,0.34735107,2.5517119999999998,1
1341,8.867416,0.33776855,2.5888214,1
1342,8.857834,0.36170959999999996,2.563675,1
1343,8.831497,0.39881897,2.5971985,1
1344,8.835098,0.43473816,2.5900116,1
1345,8.826721000000001,0.43234253,2.5110016,1
1346,8.861435,0.39523315,2.5181885,1
1347,8.887772,0.3677063,2.5852202999999996,1
1348,8.853058,0.338974,2.580429,1
1349,8.851852000000001,0.36170959999999996,2.618744,1
1350,8.775238,0.42277527,2.6714172,1
1351,8.808762,0.45030212,2.7204895000000002,1
1352,8.854248,0.38685608,2.7312775,1
1353,8.910507,0.35572815,2.7432404,1
1354,8.830307000000001,0.34854126,2.4511414,1
1355,8.817139,0.35572815,2.5732574,1
1356,8.788406,0.42515564,2.6618347,1
1357,8.802764999999999,0.43713379999999996,2.7791595,1
1358,8.793198,0.41677856,2.7492217999999995,1
1359,8.801575,0.39881897,2.6881714,1
1360,8.789597,0.4287567,2.6809845,1
1361,8.7417145,0.4191742,2.7097168,1
1362,8.770447,0.38804626,2.7635956000000004,1
1363,8.859039,0.37727356,2.7480316000000005,1
1364,8.84108,0.36170959999999996,2.7324677000000004,1
1365,8.780028999999999,0.38804626,2.7791595,1
1366,8.774047999999999,0.33059692,2.8222504,1
1367,8.793198,0.28869629999999996,2.8773193,1
1368,8.825516,0.30903625,2.888092,1
1369,8.794388,0.37010193,2.8665466,1
1370,8.753693,0.37368774,2.8258362,1
1371,8.758484,0.4072113,2.8102722,1
1372,8.777633999999999,0.41319275,2.8114777,1
1373,8.76207,0.35812378,2.833023,1
1374,8.784821,0.37608337,2.8545685,1
1375,8.806366,0.38327026,2.8150635,1
1376,8.740524,0.4084015,2.8845062,1
1377,8.784821,0.33657837,2.675003,1
1378,8.740524,0.37727356,2.6797942999999997,1
1379,8.729752000000001,0.3964386,2.7396545,1
1380,8.813553,0.4012146,2.8856964,1
1381,8.768051,0.338974,3.0054016,1
1382,8.795592999999998,0.338974,2.9359741,1
1383,8.740524,0.33657837,2.9084472999999997,1
1384,8.726150500000001,0.42277527,2.923996,1
1385,8.724960000000001,0.43234253,2.9311828999999996,1
1386,8.796783,0.4012146,2.8785095000000003,1
1387,8.780028999999999,0.417984,2.8306273999999996,1
1388,8.780028999999999,0.39164734,2.8629456,1
1389,8.759674,0.35572815,2.8821106,1
1390,8.740524,0.35812378,2.8545685,1
1391,8.784821,0.42037964,2.8689423,1
1392,8.748901,0.42396545,2.8976592999999995,1
1393,8.7608795,0.41677856,2.8773193,1
1394,8.758484,0.4000244,2.8426056,1
1395,8.738128999999999,0.36051940000000005,2.8473816000000003,1
1396,8.722565,0.3222046,2.9036560000000002,1
1397,8.734542999999999,0.39523315,2.9814606,1
1398,8.727356,0.38804626,2.9658966,1
1399,8.813553,0.42515564,2.8749237,1
1400,8.818328999999999,0.38804626,2.9216156000000004,1
1401,8.853058,0.39164734,2.6450806,1
1402,8.830307000000001,0.39283752,2.6390991,1
1403,8.724960000000001,0.38206482,2.7336577999999996,1
1404,8.817139,0.36410522,2.8533783,1
1405,8.772842,0.36410522,2.8210450000000002,1
1406,8.831497,0.38087463,2.8031006,1
1407,8.758484,0.39283752,2.7683868,1
1408,8.772842,0.4479065,2.7516173999999998,1
1409,8.794388,0.43354797,2.7528229,1
1410,8.833893,0.38446045,2.7671813999999997,1
1411,8.793198,0.34376526,2.7085266,1
1412,8.812347,0.3497467,2.7288818,1
1413,8.84108,0.35693359999999996,2.7623901,1
1414,8.80397,0.38327026,2.7169037,1
1415,8.815933,0.41079712,2.7097168,1
1416,8.784821,0.42755127,2.7037354,1
1417,8.830307000000001,0.38327026,2.6893768,1
1418,8.806366,0.36051940000000005,2.6618347,1
1419,8.814743,0.4000244,2.6402892999999996,1
1420,8.829102,0.39404297,2.6067657000000004,1
1421,8.8003845,0.38327026,2.5864257999999998,1
1422,8.818328999999999,0.38685608,2.6786041000000003,1
1423,8.893753,0.37368774,2.6175384999999998,1
1424,8.903336,0.37487793,2.6941528,1
1425,8.891357000000001,0.34376526,2.4691009999999998,1
1426,8.744110000000001,0.38087463,2.3817139,1
1427,8.825516,0.4000244,2.512207,1
1428,8.939239500000001,0.4299469,2.5744476,1
1429,8.811157000000001,0.41558838,2.5505066000000003,1
1430,8.815933,0.4479065,2.4667053,1
1431,8.847061,0.44551086,2.4547423999999998,1
1432,8.875793,0.43234253,2.4343872,1
1433,8.84227,0.41198729999999995,2.5552979,1
1434,8.860229499999999,0.39164734,2.6343078999999996,1
1435,8.82312,0.40960693,2.6678162,1
1436,8.788406,0.40600586,2.7360535,1
1437,8.753693,0.35453796,2.809082,1
1438,8.7656555,0.37010193,2.8270416000000003,1
1439,8.7812195,0.40481567,2.7791595,1
1440,8.837494,0.39164734,2.7204895000000002,1
1441,8.797989,0.41079712,2.6690216,1
1442,8.868607,0.37487793,2.6857757999999996,1
1443,8.860229499999999,0.34136963,2.6917725,1
1444,8.814743,0.35453796,2.6402892999999996,1
1445,8.802764999999999,0.36650085,2.6965485,1
1446,8.82193,0.41438293,2.8066864,1
1447,8.839889999999999,0.4012146,2.809082,1
1448,8.843475,0.34016418,2.8270416000000003,1
1449,8.869812,0.32699585,2.5935973999999997,1
1450,8.778824,0.36410522,2.5217742999999997,1
1451,8.797989,0.36889648,2.7001494999999998,1
1452,8.871002,0.38087463,2.9252013999999997,1
1453,8.796783,0.38925170000000003,2.9718932999999996,1
1454,8.854248,0.40361023,2.9874419999999997,1
1455,8.732147,0.48501587,2.9096375,1
1456,8.641159,0.48980713,2.856964,1
1457,8.753693,0.4479065,2.9491425,1
1458,8.757278,0.3677063,2.7959137000000003,1
1459,8.659119,0.39762878,2.7444305,1
1460,8.629196,0.4000244,2.833023,1
1461,8.733336999999999,0.38206482,3.034134,1
1462,8.763275,0.34255979999999997,3.1562347,1
1463,8.729752000000001,0.30545044,3.2352448,1
1464,8.679474,0.37010193,3.1957397000000003,1
1465,8.572922,0.45509338,3.1777954,1
1466,8.616028,0.48143005,3.1717987,1
1467,8.661514,0.41198729999999995,3.1741943,1
1468,8.696228,0.33178709999999995,3.1777954,1
1469,8.683060000000001,0.35333252,3.2208862000000003,1
1470,8.672286999999999,0.35572815,3.1741943,1
1471,8.666306,0.40600586,3.125122,1
1472,8.557373,0.43713379999999996,3.2005310000000002,1
1473,8.708206,0.39283752,2.9359741,1
1474,8.707001,0.35572815,2.9539337000000003,1
1475,8.750107,0.32699585,3.01857,1
1476,8.738128999999999,0.2922821,3.125122,1
1477,8.655533,0.30426025,3.2208862000000003,1
1478,8.637573,0.33537292,3.2567902,1
1479,8.642364500000001,0.34255979999999997,3.1813812,1
1480,8.669891,0.36051940000000005,3.1311035,1
1481,8.728546000000001,0.46466064,3.090393,1
1482,8.763275,0.51135254,2.9359741,1
1483,8.814743,0.46107483,2.8198547,1
1484,8.7812195,0.34854126,2.7145080000000004,1
1485,8.826721000000001,0.31622314,2.6773987,1
1486,8.850662,0.24081421,2.7264862,1
1487,8.82193,0.28988647,2.7396545,1
1488,8.795592999999998,0.36170959999999996,2.7803497000000004,1
1489,8.753693,0.43952942,2.7683868,1
1490,8.775238,0.4084015,2.8114777,1
1491,8.780028999999999,0.38206482,2.8437957999999997,1
1492,8.799178999999999,0.39164734,2.8557740000000003,1
1493,8.757278,0.34376526,2.8665466,1
1494,8.7417145,0.35214233,2.8737182999999997,1
1495,8.782425,0.4072113,2.86055,1
1496,8.7608795,0.40960693,2.9611206,1
1497,8.814743,0.41198729999999995,2.7671813999999997,1
1498,8.739319,0.41558838,2.580429,1
1499,8.780028999999999,0.35572815,2.6917725,1
1500,8.825516,0.33776855,2.8042908,1
1501,8.777633999999999,0.36531067,2.8521729,1
1502,8.740524,0.37129209999999996,2.8773193,1
1503,8.768051,0.4359436,2.8342132999999996,1
1504,8.710602,0.43354797,2.7743683,1
1505,8.768051,0.39881897,2.7599945,1
1506,8.82312,0.38206482,2.769577,1
1507,8.853058,0.34376526,2.6917725,1
1508,8.826721000000001,0.36650085,2.6570435000000003,1
1509,8.836288,0.31861877,2.666626,1
1510,8.80397,0.32101440000000003,2.6833801,1
1511,8.825516,0.34616090000000005,2.6079712,1
1512,8.856644000000001,0.27192688,2.5948029,1
1513,8.853058,0.27792358,2.6067657000000004,1
1514,8.797989,0.3138275,2.666626,1
1515,8.759674,0.36170959999999996,2.7444305,1
1516,8.830307000000001,0.3904419,2.785141,1
1517,8.795592999999998,0.39523315,2.8294373,1
1518,8.84108,0.35693359999999996,2.8138732999999996,1
1519,8.825516,0.34495544,2.8114777,1
1520,8.836288,0.30065918,2.8545685,1
1521,8.914108,0.2635498,2.5828247,1
1522,8.832703,0.26834106,2.4978333,1
1523,8.8003845,0.29826355,2.5995939999999997,1
1524,8.832703,0.37727356,2.8031006,1
1525,8.738128999999999,0.36170959999999996,2.8809052000000004,1
1526,8.772842,0.30545044,2.9048462,1
1527,8.835098,0.29348755,2.872528,1
1528,8.748901,0.35693359999999996,2.8461914,1
1529,8.732147,0.37487793,2.9024506000000003,1
1530,8.739319,0.39762878,2.9359741,1
1531,8.780028999999999,0.38685608,2.895279,1
1532,8.757278,0.38446045,2.8988647000000003,1
1533,8.757278,0.4012146,2.8665466,1
1534,8.733336999999999,0.3796692,2.9970244999999998,1
1535,8.746506,0.3677063,3.0173798,1
1536,8.764465,0.39881897,2.9862518,1
1537,8.699814,0.3964386,2.9706879,1
1538,8.692642,0.42755127,2.9491425,1
1539,8.715378,0.41677856,2.8856964,1
1540,8.698624,0.39523315,2.8833007999999998,1
1541,8.748901,0.40481567,3.0161743,1
1542,8.738128999999999,0.34735107,2.9994202000000003,1
1543,8.738128999999999,0.42277527,2.9623107999999996,1
1544,8.727356,0.37608337,3.037735,1
1545,8.778824,0.39164734,2.7899323,1
1546,8.704605,0.44911194,2.8665466,1
1547,8.659119,0.39881897,2.9335785,1
1548,8.738128999999999,0.4000244,3.0509033,1
1549,8.701019,0.4479065,3.0748444,1
1550,8.728546000000001,0.41319275,3.0604706000000004,1
1551,8.7417145,0.38925170000000003,2.9898376,1
1552,8.710602,0.4084015,2.9874419999999997,1
1553,8.671097,0.43713379999999996,2.9862518,1
1554,8.720169,0.42037964,2.9371642999999996,1
1555,8.687851,0.4084015,2.91922,1
1556,8.703415,0.40242004,2.9814606,1
1557,8.689041,0.38565063,3.1131439999999997,1
1558,8.699814,0.34255979999999997,3.1275177000000003,1
1559,8.720169,0.34616090000000005,3.105957,1
1560,8.728546000000001,0.36889648,3.0640563999999997,1
1561,8.736938,0.37727356,3.006607,1
1562,8.750107,0.34136963,2.9658966,1
1563,8.777633999999999,0.36291504,2.900055,1
1564,8.815933,0.31742859999999995,2.871338,1
1565,8.769257000000001,0.36889648,2.8473816000000003,1
1566,8.756088,0.41677856,2.8665466,1
1567,8.748901,0.43115234,2.871338,1
1568,8.814743,0.40600586,2.9108276,1
1569,8.861435,0.37487793,2.793518,1
1570,8.7608795,0.35932922,2.6726074,1
1571,8.708206,0.39762878,2.8114777,1
1572,8.732147,0.42636108,2.915619,1
1573,8.754883,0.45149229999999996,2.9503326000000003,1
1574,8.744110000000001,0.41438293,2.9419556,1
1575,8.763275,0.49339294,2.876114,1
1576,8.74292,0.47903442,2.7827453999999996,1
1577,8.750107,0.46107483,2.7743683,1
1578,8.783615,0.4287567,2.7085266,1
1579,8.8051605,0.42636108,2.706131,1
1580,8.769257000000001,0.4072113,2.697754,1
1581,8.791992,0.40242004,2.7731627999999997,1
1582,8.771652,0.41677856,2.7121124,1
1583,8.788406,0.417984,2.776764,1
1584,8.799178999999999,0.43832397,2.7564087,1
1585,8.791992,0.45030212,2.7408447,1
1586,8.790802000000001,0.41677856,2.697754,1
1587,8.788406,0.42037964,2.6714172,1
1588,8.839889999999999,0.4072113,2.6558533,1
1589,8.827911,0.43473816,2.5744476,1
1590,8.790802000000001,0.45149229999999996,2.60437,1
1591,8.811157000000001,0.47903442,2.6474762000000003,1
1592,8.84108,0.45867920000000006,2.6678162,1
1593,8.855438000000001,0.39762878,2.6857757999999996,1
1594,8.819533999999999,0.417984,2.496643,1
1595,8.780028999999999,0.4479065,2.6606445,1
1596,8.751297000000001,0.46705627,2.7899323,1
1597,8.772842,0.4299469,2.8845062,1
1598,8.769257000000001,0.40960693,2.8773193,1
1599,8.820724499999999,0.39164734,2.856964,1
1600,8.808762,0.43952942,2.7911224,1
1601,8.795592999999998,0.41558838,2.817459,1
1602,8.787216,0.4359436,2.7719727,1
1603,8.819533999999999,0.4407196,2.7073212000000004,1
1604,8.809952000000001,0.41079712,2.6414948,1
1605,8.791992,0.38565063,2.6965485,1
1606,8.753693,0.4000244,2.7815552,1
1607,8.733336999999999,0.42277527,2.9096375,1
1608,8.7764435,0.42515564,2.9048462,1
1609,8.769257000000001,0.37368774,2.9299927,1
1610,8.759674,0.38925170000000003,2.9455566,1
1611,8.786011,0.378479,2.923996,1
1612,8.790802000000001,0.43713379999999996,2.9144287,1
1613,8.813553,0.39881897,2.8545685,1
1614,8.7213745,0.44192505,2.879715,1
1615,8.739319,0.49699402,2.8617554,1
1616,8.748901,0.5771941999999999,2.9455566,1
1617,8.702209,0.5819854999999999,2.963501,1
1618,8.817139,0.47184753,2.7731627999999997,1
1619,8.728546000000001,0.46228027,2.745636,1
1620,8.714188,0.47184753,2.7480316000000005,1
1621,8.754883,0.45628357,2.8940735,1
1622,8.704605,0.41319275,3.0209656000000003,1
1623,8.696228,0.43713379999999996,3.0496979,1
1624,8.772842,0.42755127,2.9766692999999997,1
1625,8.730942,0.45269775,2.9563292999999997,1
1626,8.718979,0.45269775,2.9850616000000003,1
1627,8.746506,0.5161438,2.91922,1
1628,8.740524,0.47305298,2.8414001,1
1629,8.707001,0.47305298,2.8617554,1
1630,8.7417145,0.45988464,2.912033,1
1631,8.736938,0.40960693,2.9443512000000003,1
1632,8.726150500000001,0.43115234,2.9886475,1
1633,8.724960000000001,0.4287567,2.994629,1
1634,8.748901,0.417984,2.958725,1
1635,8.717773,0.41438293,2.9611206,1
1636,8.746506,0.38925170000000003,2.9766692999999997,1
1637,8.7608795,0.42755127,2.9778748,1
1638,8.720169,0.41677856,2.9694977000000002,1
1639,8.697433,0.44911194,2.9503326000000003,1
1640,8.712982,0.46228027,2.9790650000000003,1
1641,8.735733,0.4874115,2.9694977000000002,1
1642,8.705811,0.49099729999999997,3.0401154,1
1643,8.797989,0.3964386,3.0221709999999997,1
1644,8.732147,0.44671629999999996,2.792328,1
1645,8.705811,0.40481567,2.9144287,1
1646,8.746506,0.36291504,3.0173798,1
1647,8.732147,0.44671629999999996,3.1155396,1
1648,8.730942,0.42396545,3.0149841,1
1649,8.784821,0.43234253,2.927597,1
1650,8.728546000000001,0.41319275,2.9048462,1
1651,8.7417145,0.42515564,2.9132233,1
1652,8.746506,0.44192505,2.8581696,1
1653,8.8051605,0.46945190000000003,2.871338,1
1654,8.788406,0.45628357,2.8665466,1
1655,8.758484,0.3904419,2.8904877,1
1656,8.753693,0.39881897,2.9072418,1
1657,8.716583,0.44911194,2.9132233,1
1658,8.750107,0.4874115,2.9216156000000004,1
1659,8.759674,0.46826172,2.91922,1
1660,8.72377,0.4874115,2.9048462,1
1661,8.757278,0.43832397,2.8198547,1
1662,8.811157000000001,0.45867920000000006,2.8354187,1
1663,8.837494,0.4359436,2.7815552,1
1664,8.812347,0.45628357,2.7791595,1
1665,8.745316,0.45149229999999996,2.7803497000000004,1
1666,8.750107,0.49699402,2.8354187,1
1667,8.791992,0.51493835,2.8306273999999996,1
1668,8.796783,0.45988464,2.8497772,1
1669,8.874603,0.43115234,2.6845856,1
1670,8.708206,0.47305298,2.6307068,1
1671,8.714188,0.47903442,2.666626,1
1672,8.84227,0.47543335,2.7887267999999996,1
1673,8.76207,0.47065735,2.8102722,1
1674,8.778824,0.4766388,2.7444305,1
1675,8.7608795,0.4658661,2.7025452000000003,1
1676,8.7812195,0.52212524,2.675003,1
1677,8.787216,0.49339294,2.6953582999999997,1
1678,8.862625,0.48262024,2.6211395,1
1679,8.867416,0.44192505,2.5493164,1
1680,8.812347,0.45748900000000003,2.5864257999999998,1
1681,8.790802000000001,0.45988464,2.6307068,1
1682,8.827911,0.46107483,2.6953582999999997,1
1683,8.829102,0.49459840000000005,2.7049408,1
1684,8.7812195,0.4766388,2.7647858,1
1685,8.764465,0.47424316,2.8126678,1
1686,8.8051605,0.40600586,2.7432404,1
1687,8.794388,0.44551086,2.7731627999999997,1
1688,8.772842,0.43115234,2.7683868,1
1689,8.807556,0.44671629999999996,2.7911224,1
1690,8.791992,0.42515564,2.7444305,1
1691,8.780028999999999,0.45748900000000003,2.8162689999999997,1
1692,8.769257000000001,0.48980713,2.8521729,1
1693,8.843475,0.54008484,2.8533783,1
1694,8.890167,0.4479065,2.8031006,1
1695,8.774047999999999,0.36889648,2.4272002999999995,1
1696,8.705811,0.36531067,2.516983,1
1697,8.791992,0.43832397,2.785141,1
1698,8.799178999999999,0.49220276,3.0676575,1
1699,8.7213745,0.48860168,3.0401154,1
1700,8.748901,0.47065735,2.9802703999999998,1
1701,8.7608795,0.4359436,2.9311828999999996,1
1702,8.717773,0.45149229999999996,2.8845062,1
1703,8.711791999999999,0.4874115,2.8821106,1
1704,8.751297000000001,0.5017699999999999,2.879715,1
1705,8.7608795,0.4658661,2.8928833,1
1706,8.730942,0.4766388,2.9252013999999997,1
1707,8.726150500000001,0.50057983,2.982666,1
1708,8.732147,0.47065735,2.9371642999999996,1
1709,8.74292,0.45509338,2.9072418,1
1710,8.740524,0.45269775,2.9599152,1
1711,8.745316,0.4802246,2.9323883,1
1712,8.702209,0.47543335,2.9371642999999996,1
1713,8.729752000000001,0.46705627,2.9491425,1
1714,8.759674,0.4407196,2.923996,1
1715,8.711791999999999,0.42636108,2.958725,1
1716,8.72377,0.46107483,3.0245667000000003,1
1717,8.704605,0.45509338,2.99823,1
1718,8.715378,0.45388794,2.9874419999999997,1
1719,8.7608795,0.42636108,3.0556793,1
1720,8.8003845,0.4658661,2.754013,1
1721,8.687851,0.48622129999999997,2.8653412,1
1722,8.740524,0.44192505,2.9168243,1
1723,8.769257000000001,0.43832397,3.0113982999999998,1
1724,8.707001,0.45149229999999996,3.030548,1
1725,8.712982,0.46466064,2.9658966,1
1726,8.709396,0.5185394,2.9814606,1
1727,8.689041,0.5281066999999999,2.99823,1
1728,8.678268,0.48622129999999997,3.0018158,1
1729,8.708206,0.47903442,2.9874419999999997,1
1730,8.704605,0.4407196,3.0293427000000004,1
1731,8.681869500000001,0.45149229999999996,3.0556793,1
1732,8.705811,0.4072113,3.042511,1
1733,8.7764435,0.42277527,3.037735,1
1734,8.7417145,0.45388794,2.9730835,1
1735,8.7417145,0.46347046,2.963501,1
1736,8.747711,0.44432068,2.9299927,1
1737,8.736938,0.4802246,2.9383698,1
1738,8.735733,0.44192505,2.91922,1
1739,8.751297000000001,0.47543335,2.9359741,1
1740,8.797989,0.41558838,2.8521729,1
1741,8.730942,0.45030212,2.836609,1
1742,8.757278,0.47782898,2.8785095000000003,1
1743,8.790802000000001,0.46107483,2.8988647000000003,1
1744,8.787216,0.44311523,2.9419556,1
1745,8.892548,0.41438293,2.8809052000000004,1
1746,8.708206,0.44311523,2.7204895000000002,1
1747,8.715378,0.46826172,2.793518,1
1748,8.777633999999999,0.45628357,2.8964689999999997,1
1749,8.72377,0.47305298,2.9359741,1
1750,8.753693,0.5017699999999999,2.9168243,1
1751,8.772842,0.5352935999999999,2.9048462,1
1752,8.72377,0.5269165,2.8342132999999996,1
1753,8.766861,0.51016235,2.8641509999999997,1
1754,8.76207,0.49339294,2.833023,1
1755,8.789597,0.4766388,2.8222504,1
1756,8.76207,0.45867920000000006,2.7875366,1
1757,8.780028999999999,0.4287567,2.7863312000000002,1
1758,8.74292,0.4658661,2.8031006,1
1759,8.786011,0.47903442,2.8018951000000003,1
1760,8.795592999999998,0.48501587,2.7288818,1
1761,8.775238,0.45509338,2.6809845,1
1762,8.778824,0.47903442,2.6462708,1
1763,8.847061,0.4981842000000001,2.697754,1
1764,8.835098,0.4287567,2.6259308,1
1765,8.80397,0.41677856,2.7264862,1
1766,8.722565,0.43713379999999996,2.7683868,1
1767,8.748901,0.45509338,2.8378143,1
1768,8.750107,0.47305298,2.8450012000000005,1
1769,8.813553,0.51016235,2.8641509999999997,1
1770,8.904525999999999,0.45269775,2.738449,1
1771,8.80397,0.45269775,2.4667053,1
1772,8.758484,0.39881897,2.6606445,1
1773,8.787216,0.41558838,2.8354187,1
1774,8.74292,0.45867920000000006,2.9706879,1
1775,8.771652,0.417984,2.943161,1
1776,8.784821,0.44671629999999996,2.888092,1
1777,8.780028999999999,0.46826172,2.8617554,1
1778,8.7656555,0.4981842000000001,2.871338,1
1779,8.769257000000001,0.48143005,2.8892822,1
1780,8.819533999999999,0.42156982,2.871338,1
1781,8.791992,0.39523315,2.7659912,1
1782,8.775238,0.42156982,2.8485869999999998,1
1783,8.736938,0.42037964,2.9204102,1
1784,8.736938,0.41438293,2.9036560000000002,1
1785,8.739319,0.46107483,2.9359741,1
1786,8.730942,0.4658661,2.9287872000000004,1
1787,8.740524,0.4981842000000001,2.9443512000000003,1
1788,8.738128999999999,0.48622129999999997,2.9443512000000003,1
1789,8.775238,0.46107483,2.9359741,1
1790,8.746506,0.41558838,2.9168243,1
1791,8.745316,0.45030212,2.951538,1
1792,8.734542999999999,0.47543335,2.9862518,1
1793,8.751297000000001,0.47903442,2.9228058,1
1794,8.708206,0.42755127,3.0054016,1
1795,8.809952000000001,0.44551086,2.7647858,1
1796,8.689041,0.47903442,2.8102722,1
1797,8.693832,0.4479065,2.9108276,1
1798,8.747711,0.49699402,3.0509033,1
1799,8.663910000000001,0.47305298,3.0868073,1
1800,8.673492,0.46228027,3.0796203999999996,1
1801,8.714188,0.46705627,3.0688477,1
1802,8.695038,0.51016235,2.9539337000000003,1
1803,8.708206,0.49339294,2.9443512000000003,1
1804,8.732147,0.5161438,2.9383698,1
1805,8.711791999999999,0.46107483,2.91922,1
1806,8.718979,0.4299469,2.9694977000000002,1
1807,8.675873,0.43115234,3.0006104,1
1808,8.718979,0.43473816,3.0233612,1
1809,8.701019,0.4479065,2.9922332999999997,1
1810,8.718979,0.48622129999999997,3.0173798,1
1811,8.707001,0.4766388,3.0496979,1
1812,8.710602,0.5197295999999999,3.046112,1
1813,8.703415,0.54248047,3.0796203999999996,1
1814,8.726150500000001,0.47782898,3.0317382999999998,1
1815,8.693832,0.417984,3.0473022000000003,1
1816,8.693832,0.3964386,3.0233612,1
1817,8.714188,0.50297546,2.9742889999999997,1
1818,8.769257000000001,0.43234253,2.888092,1
1819,8.795592999999998,0.34616090000000005,2.9132233,1
1820,8.851852000000001,0.32699585,2.7085266,1
1821,8.787216,0.40242004,2.754013,1
1822,8.726150500000001,0.45867920000000006,2.912033,1
1823,8.738128999999999,0.5233306999999999,3.0568847999999997,1
1824,8.716583,0.4766388,3.0293427000000004,1
1825,8.726150500000001,0.47903442,2.9575195,1
1826,8.777633999999999,0.42515564,2.8940735,1
1827,8.726150500000001,0.4479065,2.8509827000000003,1
1828,8.750107,0.45030212,2.84021,1
1829,8.763275,0.44671629999999996,2.8509827000000003,1
1830,8.763275,0.46228027,2.7779540000000003,1
1831,8.778824,0.4802246,2.792328,1
1832,8.7812195,0.42037964,2.8270416000000003,1
1833,8.7656555,0.47543335,2.8653412,1
1834,8.758484,0.4479065,2.8378143,1
1835,8.764465,0.43713379999999996,2.8018951000000003,1
1836,8.754883,0.48860168,2.8497772,1
1837,8.729752000000001,0.43234253,2.8845062,1
1838,8.789597,0.44192505,2.8629456,1
1839,8.784821,0.41677856,2.8126678,1
1840,8.787216,0.40481567,2.7683868,1
1841,8.770447,0.43713379999999996,2.7408447,1
1842,8.7608795,0.45748900000000003,2.7875366,1
1843,8.802764999999999,0.512558,2.7875366,1
1844,8.790802000000001,0.47065735,2.776764,1
1845,8.859039,0.41079712,2.5540924,1
1846,8.769257000000001,0.4287567,2.4607238999999996,1
1847,8.80397,0.47424316,2.6343078999999996,1
1848,8.898544000000001,0.48622129999999997,2.7097168,1
1849,8.766861,0.47305298,2.7169037,1
1850,8.733336999999999,0.45628357,2.675003,1
1851,8.791992,0.4407196,2.635498,1
1852,8.845871,0.49099729999999997,2.6438751,1
1853,8.844666,0.45867920000000006,2.6462708,1
1854,8.813553,0.4479065,2.7037354,1
1855,8.812347,0.42277527,2.7049408,1
1856,8.808762,0.4299469,2.7612,1
1857,8.7608795,0.42396545,2.7863312000000002,1
1858,8.757278,0.42515564,2.8258362,1
1859,8.80397,0.42037964,2.8450012000000005,1
1860,8.772842,0.4084015,2.8102722,1
1861,8.748901,0.4299469,2.8126678,1
1862,8.740524,0.4658661,2.817459,1
1863,8.772842,0.48622129999999997,2.8426056,1
1864,8.764465,0.41438293,2.797104,1
1865,8.8051605,0.44311523,2.793518,1
1866,8.769257000000001,0.45988464,2.7863312000000002,1
1867,8.777633999999999,0.4658661,2.7959137000000003,1
1868,8.790802000000001,0.46945190000000003,2.8497772,1
1869,8.813553,0.41438293,2.9060516,1
1870,8.829102,0.41438293,2.697754,1
1871,8.727356,0.45388794,2.6295166,1
1872,8.680664,0.49699402,2.7683868,1
1873,8.72377,0.5161438,2.9862518,1
1874,8.710602,0.51374817,3.0748444,1
1875,8.754883,0.46705627,3.0353394000000002,1
1876,8.738128999999999,0.46347046,2.943161,1
1877,8.708206,0.5017699999999999,2.9311828999999996,1
1878,8.730942,0.49938965,2.9263916,1
1879,8.750107,0.43354797,2.8749237,1
1880,8.751297000000001,0.42636108,2.872528,1
1881,8.747711,0.42515564,2.900055,1
1882,8.745316,0.4359436,2.9216156000000004,1
1883,8.726150500000001,0.44311523,2.9479523,1
1884,8.753693,0.44311523,2.9527283,1
1885,8.729752000000001,0.45149229999999996,3.0233612,1
1886,8.696228,0.43832397,2.994629,1
1887,8.736938,0.40481567,2.9395599999999997,1
1888,8.736938,0.41079712,2.9754791000000003,1
1889,8.734542999999999,0.40600586,2.9611206,1
1890,8.738128999999999,0.45149229999999996,3.0173798,1
1891,8.717773,0.46826172,3.058075,1
1892,8.705811,0.46705627,3.0233612,1
1893,8.733336999999999,0.46228027,2.9623107999999996,1
1894,8.698624,0.42396545,3.0365295,1
1895,8.8003845,0.45988464,2.7887267999999996,1
1896,8.687851,0.45269775,2.8078917999999997,1
1897,8.695038,0.41558838,2.9084472999999997,1
1898,8.76207,0.42037964,3.0269470000000003,1
1899,8.686661,0.41558838,3.0880127,1
1900,8.685455000000001,0.46466064,3.0676575,1
1901,8.712982,0.46826172,2.9766692999999997,1
1902,8.689041,0.46945190000000003,2.982666,1
1903,8.747711,0.43832397,2.9563292999999997,1
1904,8.8003845,0.44551086,2.9874419999999997,1
1905,8.728546000000001,0.42396545,3.0161743,1
1906,8.680664,0.44432068,3.0317382999999998,1
1907,8.641159,0.43832397,3.1083527,1
1908,8.667496,0.37487793,3.0963898,1
1909,8.734542999999999,0.39404297,3.082016,1
1910,8.74292,0.37249756,3.0317382999999998,1
1911,8.766861,0.34735107,2.9754791000000003,1
1912,8.766861,0.38327026,2.951538,1
1913,8.768051,0.39881897,2.9311828999999996,1
1914,8.764465,0.41079712,2.9216156000000004,1
1915,8.744110000000001,0.43473816,2.9263916,1
1916,8.76207,0.417984,2.86055,1
1917,8.7656555,0.42755127,2.9323883,1
1918,8.778824,0.46705627,2.8916779,1
1919,8.787216,0.42396545,2.9694977000000002,1
1920,8.854248,0.37249756,2.9323883,1
1921,8.724960000000001,0.41079712,2.7432404,1
1922,8.695038,0.47424316,2.8114777,1
1923,8.697433,0.48980713,2.8916779,1
1924,8.722565,0.536499,2.951538,1
1925,8.715378,0.5161438,2.951538,1
1926,8.766861,0.5257263000000001,2.934784,1
1927,8.738128999999999,0.51135254,2.8557740000000003,1
1928,8.739319,0.512558,2.836609,1
1929,8.729752000000001,0.51493835,2.8437957999999997,1
1930,8.799178999999999,0.45988464,2.7671813999999997,1
1931,8.770447,0.49459840000000005,2.7468262,1
1932,8.825516,0.48860168,2.797104,1
1933,8.772842,0.48382568,2.824646,1
1934,8.709396,0.53170776,2.8354187,1
1935,8.739319,0.5628357,2.86055,1
1936,8.715378,0.5484619000000001,2.7755585,1
1937,8.734542999999999,0.5233306999999999,2.7157134999999997,1
1938,8.771652,0.5472716999999999,2.6929626,1
1939,8.824326,0.5676116999999999,2.698944,1
1940,8.808762,0.5305023,2.7157134999999997,1
1941,8.733336999999999,0.5197295999999999,2.7707672000000003,1
1942,8.712982,0.5269165,2.8689423,1
1943,8.72377,0.51493835,2.9060516,1
1944,8.772842,0.49699402,2.8701324,1
1945,8.769257000000001,0.4766388,2.9383698,1
1946,8.8051605,0.50057983,2.6558533,1
1947,8.766861,0.45509338,2.6714172,1
1948,8.730942,0.51135254,2.7719727,1
1949,8.770447,0.48382568,2.9706879,1
1950,8.72377,0.48501587,2.9706879,1
1951,8.774047999999999,0.45509338,2.9503326000000003,1
1952,8.778824,0.46107483,2.900055,1
1953,8.720169,0.53889465,2.9144287,1
1954,8.72377,0.4287567,2.8928833,1
1955,8.791992,0.4072113,2.8976592999999995,1
1956,8.807556,0.42755127,2.86055,1
1957,8.748901,0.47424316,2.8497772,1
1958,8.72377,0.512558,2.9371642999999996,1
1959,8.74292,0.5089569,3.0329437,1
1960,8.735733,0.47305298,3.0077972,1
1961,8.678268,0.41079712,2.9754791000000003,1
1962,8.703415,0.40600586,3.061676,1
1963,8.667496,0.52931213,3.0221709999999997,1
1964,8.732147,0.517334,3.0915985,1
1965,8.756088,0.46826172,2.9802703999999998,1
1966,8.707001,0.43952942,2.9359741,1
1967,8.681869500000001,0.47305298,3.003006,1
1968,8.757278,0.44551086,3.0520935000000002,1
1969,8.7656555,0.43713379999999996,2.9850616000000003,1
1970,8.685455000000001,0.48382568,3.0712433,1
1971,8.774047999999999,0.5197295999999999,2.872528,1
1972,8.686661,0.46945190000000003,2.8533783,1
1973,8.661514,0.48262024,2.9048462,1
1974,8.711791999999999,0.49699402,3.1275177000000003,1
1975,8.673492,0.49459840000000005,3.17659,1
1976,8.690247,0.45867920000000006,3.1586304,1
1977,8.695038,0.48501587,3.0688477,1
1978,8.698624,0.48382568,2.9922332999999997,1
1979,8.660324000000001,0.49220276,2.9934387000000005,1
1980,8.710602,0.5089569,2.9898376,1
1981,8.692642,0.45628357,3.0389252,1
1982,8.671097,0.46826172,3.0269470000000003,1
1983,8.666306,0.4299469,3.0796203999999996,1
1984,8.672286999999999,0.41319275,3.1095580000000003,1
1985,8.711791999999999,0.378479,3.1203307999999996,1
1986,8.685455000000001,0.39881897,3.105957,1
1987,8.681869500000001,0.44311523,3.0437164,1
1988,8.678268,0.417984,3.0951842999999997,1
1989,8.680664,0.46466064,3.0880127,1
1990,8.675873,0.43115234,3.1227264,1
1991,8.673492,0.42755127,3.0856169999999996,1
1992,8.668700999999999,0.41438293,3.0880127,1
1993,8.642364500000001,0.41438293,3.058075,1
1994,8.710602,0.40361023,3.0077972,1
1995,8.774047999999999,0.40960693,3.0257568,1
1996,8.833893,0.42277527,3.030548,1
1997,8.797989,0.37010193,2.7815552,1
1998,8.764465,0.3677063,2.7468262,1
1999,8.732147,0.40242004,2.7827453999999996,1
2000,8.747711,0.42396545,2.888092,1
2001,8.7417145,0.41198729999999995,2.9395599999999997,1
2002,8.777633999999999,0.4191742,2.9802703999999998,1
2003,8.757278,0.4000244,2.9132233,1
2004,8.7656555,0.4084015,2.86055,1
2005,8.763275,0.41319275,2.8737182999999997,1
2006,8.763275,0.45388794,2.8928833,1
2007,8.794388,0.44432068,2.8916779,1
2008,8.746506,0.44911194,2.9204102,1
2009,8.748901,0.41079712,2.8737182999999997,1
2010,8.74292,0.40600586,2.9168243,1
2011,8.754883,0.43115234,2.8904877,1
2012,8.763275,0.44671629999999996,2.8916779,1
2013,8.763275,0.42755127,2.8821106,1
2014,8.793198,0.42636108,2.836609,1
2015,8.782425,0.40960693,2.809082,1
2016,8.796783,0.46466064,2.792328,1
2017,8.766861,0.46826172,2.7994995,1
2018,8.815933,0.5017699999999999,2.785141,1
2019,8.7764435,0.49699402,2.7444305,1
2020,8.739319,0.53170776,2.8078917999999997,1
2021,8.795592999999998,0.46228027,2.8222504,1
2022,8.825516,0.4479065,2.8234406,1
2023,8.853058,0.45388794,2.7432404,1
2024,8.704605,0.45988464,2.5277557,1
2025,8.746506,0.45867920000000006,2.6438751,1
2026,8.795592999999998,0.45509338,2.8114777,1
2027,8.732147,0.45269775,2.8904877,1
2028,8.754883,0.48143005,2.8533783,1
2029,8.754883,0.4981842000000001,2.900055,1
2030,8.7608795,0.46107483,2.8845062,1
2031,8.740524,0.43234253,2.9503326000000003,1
2032,8.738128999999999,0.4084015,2.9790650000000003,1
2033,8.733336999999999,0.4287567,2.9419556,1
2034,8.82312,0.38925170000000003,2.8497772,1
2035,8.769257000000001,0.39881897,2.86055,1
2036,8.736938,0.41438293,2.8916779,1
2037,8.748901,0.45269775,2.9419556,1
2038,8.7656555,0.4299469,2.923996,1
2039,8.738128999999999,0.4072113,2.9168243,1
2040,8.7812195,0.417984,2.9575195,1
2041,8.7608795,0.41079712,2.912033,1
2042,8.766861,0.4299469,2.9383698,1
2043,8.759674,0.45988464,2.895279,1
2044,8.712982,0.46107483,2.9299927,1
2045,8.696228,0.50297546,3.0101929,1
2046,8.654327,0.4766388,3.0808258,1
2047,8.72377,0.38446045,3.0748444,1
2048,8.740524,0.39283752,3.066452,1
2049,8.754883,0.37487793,3.0760345,1
2050,8.784821,0.4000244,2.7647858,1
2051,8.716583,0.48501587,2.871338,1
2052,8.696228,0.52093506,2.9790650000000003,1
2053,8.691436999999999,0.45748900000000003,3.09758,1
2054,8.657928,0.45030212,3.101181,1
2055,8.720169,0.43713379999999996,3.1035614,1
2056,8.748901,0.45149229999999996,3.0161743,1
2057,8.698624,0.4287567,2.9706879,1
2058,8.736938,0.4191742,3.0137787,1
2059,8.74292,0.41558838,3.01857,1
2060,8.704605,0.4012146,2.9838562,1
2061,8.687851,0.42755127,3.0544891,1
2062,8.691436999999999,0.417984,3.0700529999999997,1
2063,8.685455000000001,0.40481567,3.1191254,1
2064,8.747711,0.4191742,3.0796203999999996,1
2065,8.693832,0.43234253,3.0880127,1
2066,8.715378,0.45269775,3.0844116,1
2067,8.693832,0.43713379999999996,3.090393,1
2068,8.701019,0.42755127,3.034134,1
2069,8.701019,0.4299469,3.0628662,1
2070,8.724960000000001,0.41079712,3.0197754,1
2071,8.691436999999999,0.44192505,3.0532837,1
2072,8.689041,0.47065735,3.0939941,1
2073,8.703415,0.46347046,3.0951842999999997,1
2074,8.660324000000001,0.4802246,3.0832214,1
2075,8.654327,0.4287567,3.1861725,1
2076,8.717773,0.45509338,2.8916779,1
2077,8.685455000000001,0.48262024,2.9479523,1
2078,8.702209,0.45748900000000003,3.0137787,1
2079,8.708206,0.45628357,3.061676,1
2080,8.635178,0.49459840000000005,3.121521,1
2081,8.594482000000001,0.4874115,3.1550446,1
2082,8.610046,0.44911194,3.1801757999999998,1
2083,8.654327,0.42396545,3.1119537,1
2084,8.76207,0.33537292,3.0784302,1
2085,8.771652,0.36650085,3.0473022000000003,1
2086,8.746506,0.38565063,3.0173798,1
2087,8.720169,0.40600586,3.034134,1
2088,8.727356,0.4299469,3.0221709999999997,1
2089,8.718979,0.45269775,3.0161743,1
2090,8.698624,0.42396545,2.9934387000000005,1
2091,8.708206,0.39881897,3.0496979,1
2092,8.718979,0.37727356,3.0796203999999996,1
2093,8.693832,0.39283752,3.1035614,1
2094,8.712982,0.39523315,3.0915985,1
2095,8.686661,0.3904419,3.1227264,1
2096,8.689041,0.38804626,3.169403,1
2097,8.678268,0.37249756,3.121521,1
2098,8.642364500000001,0.41319275,3.073639,1
2099,8.679474,0.46826172,3.0090027000000004,1
2100,8.751297000000001,0.53170776,2.8809052000000004,1
2101,8.82312,0.5676116999999999,2.8533783,1
2102,8.853058,0.48860168,2.7731627999999997,1
2103,8.745316,0.46228027,2.666626,1
2104,8.774047999999999,0.43354797,2.7779540000000003,1
2105,8.7812195,0.46107483,2.8485869999999998,1
2106,8.7417145,0.46347046,2.927597,1
2107,8.708206,0.43234253,2.923996,1
2108,8.752487,0.45748900000000003,2.9371642999999996,1
2109,8.7764435,0.47065735,2.8593597,1
2110,8.733336999999999,0.47543335,2.7827453999999996,1
2111,8.764465,0.45748900000000003,2.7779540000000003,1
2112,8.809952000000001,0.4407196,2.7983092999999997,1
2113,8.7764435,0.4084015,2.6905669999999997,1
2114,8.775238,0.39164734,2.6714172,1
2115,8.766861,0.42515564,2.737259,1
2116,8.799178999999999,0.46347046,2.7647858,1
2117,8.788406,0.39404297,2.8450012000000005,1
2118,8.7764435,0.38087463,2.8473816000000003,1
2119,8.766861,0.38925170000000003,2.86055,1
2120,8.772842,0.4072113,2.8665466,1
2121,8.777633999999999,0.36650085,2.8198547,1
2122,8.815933,0.37129209999999996,2.8437957999999997,1
2123,8.726150500000001,0.37487793,2.856964,1
2124,8.715378,0.44551086,2.8461914,1
2125,8.673492,0.4874115,2.943161,1
2126,8.768051,0.4874115,2.8988647000000003,1
2127,8.772842,0.40600586,2.8821106,1
2128,8.869812,0.3509369,2.7097168,1
2129,8.849457000000001,0.33418274,2.5181885,1
2130,8.769257000000001,0.36291504,2.6402892999999996,1
2131,8.797989,0.44432068,2.8773193,1
2132,8.744110000000001,0.47782898,2.9527283,1
2133,8.7213745,0.41198729999999995,3.046112,1
2134,8.76207,0.3282013,3.0365295,1
2135,8.734542999999999,0.30065918,2.9407654,1
2136,8.740524,0.37010193,2.9479523,1
2137,8.768051,0.31982422,2.9323883,1
2138,8.780028999999999,0.33059692,2.8976592999999995,1
2139,8.739319,0.3796692,2.923996,1
2140,8.739319,0.3904419,2.963501,1
2141,8.708206,0.3964386,2.9994202000000003,1
2142,8.691436999999999,0.378479,2.9611206,1
2143,8.76207,0.37727356,2.9934387000000005,1
2144,8.784821,0.40242004,2.9611206,1
2145,8.717773,0.44192505,2.91922,1
2146,8.697433,0.5017699999999999,2.9311828999999996,1
2147,8.699814,0.48980713,2.9706879,1
2148,8.745316,0.50057983,2.9467467999999997,1
2149,8.769257000000001,0.51016235,2.9862518,1
2150,8.663910000000001,0.5592345999999999,3.0592804,1
2151,8.702209,0.54248047,3.0449066000000005,1
2152,8.718979,0.5700073,2.9874419999999997,1
2153,8.675873,0.5281066999999999,3.0592804,1
2154,8.7608795,0.53289795,2.8521729,1
2155,8.630386,0.5843811,2.792328,1
2156,8.667496,0.49578857,2.9299927,1
2157,8.754883,0.45988464,3.0485077,1
2158,8.693832,0.5161438,3.0389252,1
2159,8.707001,0.5269165,3.0449066000000005,1
2160,8.726150500000001,0.5568390000000001,2.9898376,1
2161,8.666306,0.5305023,3.0042114,1
2162,8.683060000000001,0.4766388,2.9874419999999997,1
2163,8.744110000000001,0.46107483,2.9742889999999997,1
2164,8.685455000000001,0.48262024,2.9611206,1
2165,8.716583,0.4299469,3.0449066000000005,1
2166,8.693832,0.4359436,3.0090027000000004,1
2167,8.705811,0.4287567,3.0413208,1
2168,8.729752000000001,0.43952942,3.0520935000000002,1
2169,8.695038,0.4479065,3.01857,1
2170,8.714188,0.47782898,3.0090027000000004,1
2171,8.707001,0.46945190000000003,3.0149841,1
2172,8.709396,0.46228027,3.0401154,1
2173,8.702209,0.40960693,3.0544891,1
2174,8.666306,0.4191742,3.0173798,1
2175,8.695038,0.45269775,3.0532837,1
2176,8.691436999999999,0.4407196,3.0987854,1
2177,8.711791999999999,0.45509338,3.0951842999999997,1
2178,8.7608795,0.43115234,3.0101929,1
2179,8.790802000000001,0.40600586,3.0724487000000003,1
2180,8.756088,0.4191742,2.721695,1
2181,8.734542999999999,0.4802246,2.8294373,1
2182,8.748901,0.4658661,2.912033,1
2183,8.740524,0.48980713,2.9862518,1
2184,8.726150500000001,0.5077667,3.0018158,1
2185,8.753693,0.50297546,2.9599152,1
2186,8.727356,0.5233306999999999,2.8892822,1
2187,8.733336999999999,0.49099729999999997,2.8437957999999997,1
2188,8.764465,0.47424316,2.8617554,1
2189,8.811157000000001,0.48501587,2.8533783,1
2190,8.769257000000001,0.47184753,2.856964,1
2191,8.736938,0.44192505,2.8964689999999997,1
2192,8.772842,0.44551086,2.879715,1
2193,8.732147,0.49099729999999997,2.8737182999999997,1
2194,8.740524,0.52931213,2.8773193,1
2195,8.745316,0.5269165,2.824646,1
2196,8.733336999999999,0.47065735,2.8342132999999996,1
2197,8.777633999999999,0.48980713,2.800705,1
2198,8.790802000000001,0.52093506,2.831833,1
2199,8.783615,0.48262024,2.7803497000000004,1
2200,8.7812195,0.47782898,2.8234406,1
2201,8.763275,0.45388794,2.7863312000000002,1
2202,8.759674,0.51493835,2.7755585,1
2203,8.794388,0.53170776,2.8294373,1
2204,8.814743,0.5281066999999999,2.8018951000000003,1
2205,8.825516,0.47305298,2.8306273999999996,1
2206,8.759674,0.49339294,2.60437,1
2207,8.7417145,0.47543335,2.7133179,1
2208,8.817139,0.47782898,2.697754,1
2209,8.820724499999999,0.5053711,2.7480316000000005,1
2210,8.784821,0.52931213,2.6917725,1
2211,8.7764435,0.52931213,2.6881714,1
2212,8.7656555,0.5341034,2.6534576000000003,1
2213,8.777633999999999,0.53289795,2.6869812,1
2214,8.831497,0.52212524,2.745636,1
2215,8.836288,0.45748900000000003,2.8042908,1
2216,8.763275,0.45748900000000003,2.824646,1
2217,8.720169,0.46347046,2.8509827000000003,1
2218,8.718979,0.45988464,2.8904877,1
2219,8.740524,0.46826172,2.9335785,1
2220,8.764465,0.54367065,2.9467467999999997,1
2221,8.724960000000001,0.46826172,2.9407654,1
2222,8.758484,0.45867920000000006,2.9395599999999997,1
2223,8.775238,0.45748900000000003,2.8701324,1
2224,8.769257000000001,0.4407196,2.817459,1
2225,8.806366,0.47543335,2.8378143,1
2226,8.752487,0.4407196,2.792328,1
2227,8.738128999999999,0.44311523,2.84021,1
2228,8.711791999999999,0.45628357,2.9216156000000004,1
2229,8.748901,0.44911194,2.9718932999999996,1
2230,8.7417145,0.45988464,2.9575195,1
2231,8.802764999999999,0.46107483,2.991043,1
2232,8.788406,0.47305298,2.7575988999999996,1
2233,8.692642,0.4981842000000001,2.7791595,1
2234,8.714188,0.5053711,2.9862518,1
2235,8.728546000000001,0.4874115,3.1382904,1
2236,8.727356,0.517334,3.0808258,1
2237,8.705811,0.49459840000000005,3.01857,1
2238,8.7213745,0.5245209,3.0628662,1
2239,8.707001,0.53289795,3.0245667000000003,1
2240,8.687851,0.50057983,3.0018158,1
2241,8.711791999999999,0.48860168,2.9706879,1
2242,8.733336999999999,0.51135254,2.9419556,1
2243,8.712982,0.53170776,2.9706879,1
2244,8.726150500000001,0.517334,3.042511,1
2245,8.695038,0.49459840000000005,3.0520935000000002,1
2246,8.691436999999999,0.47903442,3.0449066000000005,1
2247,8.704605,0.52931213,3.0485077,1
2248,8.685455000000001,0.5077667,3.0353394000000002,1
2249,8.692642,0.51016235,3.0329437,1
2250,8.7213745,0.51016235,3.0329437,1
2251,8.695038,0.47903442,3.0485077,1
2252,8.728546000000001,0.46107483,3.0269470000000003,1
2253,8.716583,0.46466064,2.9994202000000003,1
2254,8.709396,0.51135254,3.0724487000000003,1
2255,8.746506,0.4981842000000001,3.0604706000000004,1
2256,8.707001,0.512558,3.037735,1
2257,8.748901,0.47543335,3.042511,1
2258,8.702209,0.5185394,2.831833,1
2259,8.647155999999999,0.43832397,2.9455566,1
2260,8.711791999999999,0.44192505,3.0054016,1
2261,8.712982,0.44911194,3.1023712000000003,1
2262,8.689041,0.51374817,3.0688477,1
2263,8.704605,0.51016235,3.0496979,1
2264,8.655533,0.57240295,3.0137787,1
2265,8.64595,0.5472716999999999,3.0532837,1
2266,8.707001,0.512558,3.0437164,1
2267,8.72377,0.47184753,2.9814606,1
2268,8.696228,0.48860168,2.967102,1
2269,8.695038,0.5089569,3.0042114,1
2270,8.696228,0.49220276,3.01857,1
2271,8.679474,0.51016235,3.0628662,1
2272,8.72377,0.4981842000000001,3.090393,1
2273,8.696228,0.47424316,3.1143494,1
2274,8.672286999999999,0.49938965,3.1167297,1
2275,8.674683,0.45269775,3.101181,1
2276,8.679474,0.45030212,3.0748444,1
2277,8.740524,0.44192505,3.0676575,1
2278,8.797989,0.42755127,2.951538,1
2279,8.80397,0.417984,2.9658966,1
2280,8.718979,0.47305298,2.9742889999999997,1
2281,8.693832,0.5185394,2.9730835,1
2282,8.718979,0.5676116999999999,2.9802703999999998,1
2283,8.7213745,0.5305023,3.0233612,1
2284,8.84108,0.50297546,2.8976592999999995,1
2285,8.715378,0.47065735,2.7635956000000004,1
2286,8.716583,0.44311523,2.8868866,1
2287,8.733336999999999,0.45388794,3.003006,1
2288,8.7213745,0.48143005,3.0365295,1
2289,8.681869500000001,0.51493835,3.003006,1
2290,8.730942,0.5376892,3.0006104,1
2291,8.711791999999999,0.5161438,2.8916779,1
2292,8.699814,0.5771941999999999,2.9228058,1
2293,8.763275,0.5017699999999999,2.9036560000000002,1
2294,8.820724499999999,0.45509338,2.8533783,1
2295,8.784821,0.42277527,2.800705,1
2296,8.7764435,0.39404297,2.7994995,1
2297,8.7812195,0.4191742,2.8450012000000005,1
2298,8.793198,0.44192505,2.879715,1
2299,8.763275,0.4766388,2.8126678,1
2300,8.764465,0.43234253,2.8390044999999997,1
2301,8.788406,0.39404297,2.8450012000000005,1
2302,8.795592999999998,0.4191742,2.8258362,1
2303,8.775238,0.48143005,2.7959137000000003,1
2304,8.728546000000001,0.54367065,2.817459,1
2305,8.766861,0.5197295999999999,2.8258362,1
2306,8.777633999999999,0.44432068,2.7827453999999996,1
2307,8.735733,0.49099729999999997,2.7875366,1
2308,8.7764435,0.45269775,2.8378143,1
2309,8.826721000000001,0.44432068,2.6917725,1
2310,8.780028999999999,0.45748900000000003,2.6738129,1
2311,8.880585,0.41079712,2.6546478,1
2312,8.824326,0.46466064,2.4691009999999998,1
2313,8.738128999999999,0.4191742,2.6833801,1
2314,8.7608795,0.47305298,2.8354187,1
2315,8.7812195,0.4981842000000001,2.9024506000000003,1
2316,8.746506,0.43713379999999996,2.9216156000000004,1
2317,8.704605,0.44432068,2.9443512000000003,1
2318,8.74292,0.45748900000000003,2.9994202000000003,1
2319,8.736938,0.4359436,3.034134,1
2320,8.710602,0.39404297,3.0544891,1
2321,8.795592999999998,0.3102417,3.0233612,1
2322,8.807556,0.34495544,3.0137787,1
2323,8.699814,0.4072113,2.9958343999999997,1
2324,8.589691,0.48980713,3.0772247000000004,1
2325,8.577713000000001,0.5065613,3.101181,1
2326,8.635178,0.4658661,3.1382904,1
2327,8.722565,0.41079712,3.0963898,1
2328,8.722565,0.39404297,3.1071625,1
2329,8.710602,0.36410522,3.1454619999999998,1
2330,8.695038,0.35693359999999996,3.1167297,1
2331,8.680664,0.37727356,3.0628662,1
2332,8.698624,0.35333252,3.0054016,1
2333,8.7417145,0.37010193,3.0197754,1
2334,8.746506,0.41319275,3.01857,1
2335,8.750107,0.417984,2.963501,1
2336,8.718979,0.3677063,2.9108276,1
2337,8.678268,0.30186462,2.9994202000000003,1
2338,8.793198,0.35214233,2.7564087,1
2339,8.689041,0.42277527,2.8904877,1
2340,8.696228,0.43952942,3.030548,1
2341,8.729752000000001,0.43234253,3.1454619999999998,1
2342,8.650742,0.38446045,3.1167297,1
2343,8.699814,0.3677063,3.1191254,1
2344,8.74292,0.37487793,3.0688477,1
2345,8.695038,0.4012146,3.082016,1
2346,8.683060000000001,0.38685608,3.090393,1
2347,8.691436999999999,0.38087463,3.0509033,1
2348,8.718979,0.37129209999999996,3.0221709999999997,1
2349,8.703415,0.35572815,3.0293427000000004,1
2350,8.696228,0.3964386,3.0496979,1
2351,8.687851,0.38804626,3.073639,1
2352,8.691436999999999,0.31982422,3.0628662,1
2353,8.712982,0.29467773,3.030548,1
2354,8.711791999999999,0.35693359999999996,3.1071625,1
2355,8.691436999999999,0.38087463,3.1071625,1
2356,8.693832,0.39283752,3.1598357999999998,1
2357,8.663910000000001,0.36410522,3.164627,1
2358,8.683060000000001,0.33059692,3.1574402000000004,1
2359,8.679474,0.34616090000000005,3.1035614,1
2360,8.679474,0.37727356,3.0748444,1
2361,8.684265,0.417984,3.1179352000000002,1
2362,8.702209,0.41558838,3.1047667999999997,1
2363,8.722565,0.4407196,3.0054016,1
2364,8.669891,0.38087463,3.090393,1
2365,8.814743,0.38087463,2.8904877,1
2366,8.730942,0.45988464,2.797104,1
2367,8.679474,0.43354797,2.9024506000000003,1
2368,8.739319,0.46228027,3.0532837,1
2369,8.716583,0.44911194,3.0473022000000003,1
2370,8.703415,0.4299469,2.9970244999999998,1
2371,8.729752000000001,0.41198729999999995,2.9599152,1
2372,8.729752000000001,0.44311523,2.9443512000000003,1
2373,8.701019,0.43713379999999996,2.915619,1
2374,8.736938,0.378479,2.9096375,1
2375,8.782425,0.33178709999999995,2.9072418,1
2376,8.772842,0.33299255,2.955124,1
2377,8.756088,0.33776855,2.9886475,1
2378,8.714188,0.38925170000000003,3.0018158,1
2379,8.729752000000001,0.38804626,2.958725,1
2380,8.736938,0.39762878,2.8976592999999995,1
2381,8.802764999999999,0.378479,2.8485869999999998,1
2382,8.812347,0.35932922,2.8390044999999997,1
2383,8.789597,0.34495544,2.8976592999999995,1
2384,8.756088,0.37010193,2.943161,1
2385,8.763275,0.38446045,2.9060516,1
2386,8.764465,0.35214233,2.8785095000000003,1
2387,8.777633999999999,0.32699585,2.8581696,1
2388,8.707001,0.31861877,2.8868866,1
2389,8.797989,0.37010193,2.8461914,1
2390,8.789597,0.38446045,2.7408447,1
2391,8.754883,0.43115234,2.8677368,1
2392,8.8051605,0.44671629999999996,2.7408447,1
2393,8.7417145,0.48262024,2.84021,1
2394,8.704605,0.48382568,2.9072418,1
2395,8.772842,0.47543335,2.9539337000000003,1
2396,8.76207,0.45748900000000003,2.9108276,1
2397,8.734542999999999,0.4802246,2.888092,1
2398,8.745316,0.5185394,2.8354187,1
2399,8.729752000000001,0.46228027,2.8497772,1
2400,8.690247,0.417984,2.8964689999999997,1
2401,8.7656555,0.4191742,2.9180145,1
2402,8.815933,0.36291504,2.8581696,1
2403,8.732147,0.3904419,2.8653412,1
2404,8.720169,0.43115234,2.9096375,1
2405,8.703415,0.4287567,2.9443512000000003,1
2406,8.782425,0.43234253,3.0018158,1
2407,8.7417145,0.41079712,3.0018158,1
2408,8.739319,0.42037964,2.9898376,1
2409,8.666306,0.43952942,3.0449066000000005,1
2410,8.678268,0.43713379999999996,3.058075,1
2411,8.684265,0.43713379999999996,3.066452,1
2412,8.7656555,0.36410522,2.9970244999999998,1
2413,8.7417145,0.29707336,3.0125884999999997,1
2414,8.690247,0.35214233,3.0939941,1
2415,8.662704,0.33299255,3.1610259999999997,1
2416,8.712982,0.35453796,3.0652618,1
2417,8.660324000000001,0.30903625,3.0951842999999997,1
2418,8.818328999999999,0.31982422,3.0197754,1
2419,8.783615,0.35333252,2.8102722,1
2420,8.671097,0.40242004,2.91922,1
2421,8.727356,0.41319275,3.1263123,1
2422,8.704605,0.42277527,3.1167297,1
2423,8.662704,0.44671629999999996,3.137085,1
2424,8.678268,0.43713379999999996,3.0772247000000004,1
2425,8.695038,0.417984,3.0927887000000003,1
2426,8.650742,0.42156982,3.0700529999999997,1
2427,8.684265,0.37727356,3.0401154,1
2428,8.729752000000001,0.34616090000000005,3.042511,1
2429,8.686661,0.38327026,3.006607,1
2430,8.669891,0.4072113,3.0724487000000003,1
2431,8.671097,0.45030212,3.0724487000000003,1
2432,8.693832,0.45867920000000006,3.0927887000000003,1
2433,8.707001,0.44192505,3.0915985,1
2434,8.696228,0.43354797,3.09758,1
2435,8.707001,0.417984,3.090393,1
2436,8.690247,0.37249756,3.1167297,1
2437,8.686661,0.34495544,3.0915985,1
2438,8.673492,0.36170959999999996,3.1382904,1
2439,8.711791999999999,0.40481567,3.1227264,1
2440,8.707001,0.42277527,3.089203,1
2441,8.686661,0.45628357,3.0927887000000003,1
2442,8.669891,0.43473816,3.0796203999999996,1
2443,8.724960000000001,0.41079712,3.037735,1
2444,8.705811,0.39881897,3.0281525,1
2445,8.807556,0.38685608,3.082016,1
2446,8.7213745,0.46107483,2.8186646,1
2447,8.651932,0.45030212,2.9299927,1
2448,8.720169,0.40481567,3.073639,1
2449,8.751297000000001,0.35812378,3.1155396,1
2450,8.697433,0.33178709999999995,3.0688477,1
2451,8.739319,0.39283752,3.0329437,1
2452,8.690247,0.3964386,3.0161743,1
2453,8.708206,0.42037964,2.9886475,1
2454,8.745316,0.33059692,2.9323883,1
2455,8.782425,0.37368774,2.8904877,1
2456,8.7656555,0.34854126,2.9084472999999997,1
2457,8.74292,0.32341003,2.9563292999999997,1
2458,8.7417145,0.28390503,3.0090027000000004,1
2459,8.729752000000001,0.299469,3.0173798,1
2460,8.724960000000001,0.3222046,2.9730835,1
2461,8.754883,0.31742859999999995,2.9814606,1
2462,8.739319,0.30665588,2.9575195,1
2463,8.76207,0.28509520000000005,3.006607,1
2464,8.754883,0.27911377,2.9658966,1
2465,8.7656555,0.30305479999999996,2.927597,1
2466,8.780028999999999,0.28271484,2.888092,1
2467,8.754883,0.31503296,2.8749237,1
2468,8.745316,0.34136963,2.8258362,1
2469,8.726150500000001,0.32580566,2.8976592999999995,1
2470,8.851852000000001,0.39164734,2.8054962000000003,1
2471,8.748901,0.36291504,2.8162689999999997,1
2472,8.875793,0.4658661,2.797104,1
2473,8.716583,0.40600586,2.7133179,1
2474,8.686661,0.44311523,2.8904877,1
2475,8.726150500000001,0.38925170000000003,3.0113982999999998,1
2476,8.756088,0.38925170000000003,3.0245667000000003,1
2477,8.696228,0.4000244,3.0281525,1
2478,8.729752000000001,0.41079712,3.061676,1
2479,8.687851,0.45628357,2.994629,1
2480,8.701019,0.45149229999999996,2.9168243,1
2481,8.756088,0.47903442,2.9491425,1
2482,8.835098,0.47543335,2.9072418,1
2483,8.740524,0.42396545,2.836609,1
2484,8.642364500000001,0.36889648,2.9060516,1
2485,8.667496,0.37608337,3.046112,1
2486,8.702209,0.4000244,3.1394806,1
2487,8.702209,0.42156982,3.204132,1
2488,8.678268,0.40481567,3.17659,1
2489,8.643555000000001,0.3677063,3.1957397000000003,1
2490,8.678268,0.37368774,3.1143494,1
2491,8.716583,0.33776855,3.1263123,1
2492,8.710602,0.32699585,3.0700529999999997,1
2493,8.726150500000001,0.31143188,3.0808258,1
2494,8.730942,0.38804626,3.042511,1
2495,8.734542999999999,0.3904419,3.0712433,1
2496,8.789597,0.4287567,3.0329437,1
2497,8.722565,0.38087463,3.0137787,1
2498,8.622009,0.38804626,3.0149841,1
2499,8.678268,0.35453796,2.7336577999999996,1
2500,8.60405,0.33776855,2.8114777,1
2501,8.750107,0.4000244,3.0449066000000005,1
2502,8.675873,0.41438293,3.3226318,1
2503,8.574127,0.4191742,3.3549652,1
2504,8.576523,0.48980713,3.2962952000000003,1
2505,8.64595,0.43115234,3.2520142000000005,1
2506,8.612427,0.45030212,3.17659,1
2507,8.623199000000001,0.44551086,3.2292633,1
2508,8.672286999999999,0.38804626,3.2065125,1
2509,8.673492,0.38206482,3.2328491,1
2510,8.6651,0.43832397,3.1825714,1
2511,8.617218,0.45388794,3.287918,1
2512,8.612427,0.42156982,3.2927093999999997,1
2513,8.601654,0.39283752,3.2603912,1
2514,8.56575,0.39762878,3.2220763999999997,1
2515,8.642364500000001,0.38087463,3.184967,1
2516,8.685455000000001,0.38327026,3.1526490000000003,1
2517,8.689041,0.38804626,3.2053222999999997,1
2518,8.707001,0.3964386,3.1801757999999998,1
2519,8.707001,0.34495544,3.1406707999999997,1
2520,8.684265,0.28869629999999996,3.105957,1
2521,8.685455000000001,0.38087463,3.0568847999999997,1
2522,8.708206,0.3796692,3.066452,1
2523,8.744110000000001,0.38206482,2.9970244999999998,1
2524,8.724960000000001,0.3282013,3.125122,1
2525,8.837494,0.33776855,2.963501,1
2526,8.663910000000001,0.39881897,2.817459,1
2527,8.602859500000001,0.3964386,2.9359741,1
2528,8.7417145,0.42636108,3.0808258,1
2529,8.750107,0.36889648,3.0927887000000003,1
2530,8.7213745,0.39523315,2.9623107999999996,1
2531,8.697433,0.39881897,2.9371642999999996,1
2532,8.708206,0.4012146,2.915619,1
2533,8.739319,0.37487793,2.943161,1
2534,8.793198,0.39881897,2.8737182999999997,1
2535,8.770447,0.35333252,2.8892822,1
2536,8.692642,0.38206482,2.915619,1
2537,8.740524,0.40361023,2.9323883,1
2538,8.736938,0.43115234,2.8976592999999995,1
2539,8.696228,0.45509338,2.8916779,1
2540,8.766861,0.39881897,2.8509827000000003,1
2541,8.756088,0.34495544,2.800705,1
2542,8.775238,0.33657837,2.7552185000000002,1
2543,8.82193,0.3509369,2.8222504,1
2544,8.783615,0.37249756,2.8138732999999996,1
2545,8.734542999999999,0.38565063,2.9024506000000003,1
2546,8.717773,0.44432068,2.9730835,1
2547,8.727356,0.5065613,3.0018158,1
2548,8.754883,0.45388794,3.058075,1
2549,8.718979,0.38087463,3.0389252,1
2550,8.74292,0.3102417,3.0233612,1
2551,8.820724499999999,0.299469,2.856964,1
2552,8.672286999999999,0.38206482,2.8018951000000003,1
2553,8.641159,0.42037964,2.9682922,1
2554,8.683060000000001,0.47782898,3.1466675,1
2555,8.679474,0.43832397,3.1227264,1
2556,8.651932,0.43952942,3.0915985,1
2557,8.707001,0.45269775,3.1023712000000003,1
2558,8.701019,0.47543335,3.0449066000000005,1
2559,8.698624,0.51016235,3.0939941,1
2560,8.735733,0.40481567,3.0449066000000005,1
2561,8.735733,0.34735107,2.958725,1
2562,8.740524,0.37368774,2.9958343999999997,1
2563,8.686661,0.43473816,3.0760345,1
2564,8.588486,0.44432068,3.073639,1
2565,8.600464,0.46945190000000003,3.1346893,1
2566,8.714188,0.48262024,3.153839,1
2567,8.696228,0.37727356,3.125122,1
2568,8.673492,0.38925170000000003,3.1035614,1
2569,8.632782,0.40361023,3.0748444,1
2570,8.686661,0.41677856,3.1047667999999997,1
2571,8.720169,0.4191742,3.1107482999999996,1
2572,8.703415,0.42396545,3.1634216,1
2573,8.687851,0.44192505,3.1502533,1
2574,8.729752000000001,0.38206482,3.1179352000000002,1
2575,8.602859500000001,0.43473816,3.1813812,1
2576,8.745316,0.4287567,3.2113037,1
2577,8.680664,0.378479,3.0197754,1
2578,8.548981,0.37727356,3.128708,1
2579,8.685455000000001,0.37010193,3.1346893,1
2580,8.674683,0.36410522,3.1933439999999997,1
2581,8.623199000000001,0.43713379999999996,3.224472,1
2582,8.654327,0.48622129999999997,3.216095,1
2583,8.641159,0.49220276,3.1107482999999996,1
2584,8.669891,0.47305298,3.0784302,1
2585,8.656723,0.42037964,3.09758,1
2586,8.660324000000001,0.43832397,3.0796203999999996,1
2587,8.64476,0.417984,3.1023712000000003,1
2588,8.720169,0.37010193,3.0987854,1
2589,8.704605,0.34616090000000005,3.1322937,1
2590,8.672286999999999,0.40960693,3.1346893,1
2591,8.648346,0.46107483,3.2328491,1
2592,8.635178,0.46347046,3.2196808,1
2593,8.618423,0.44911194,3.2340546000000003,1
2594,8.636368,0.36650085,3.224472,1
2595,8.708206,0.35572815,3.1730042000000003,1
2596,8.708206,0.34255979999999997,3.153839,1
2597,8.702209,0.3677063,3.137085,1
2598,8.675873,0.39404297,3.1562347,1
2599,8.663910000000001,0.4479065,3.09758,1
2600,8.724960000000001,0.3677063,2.8964689999999997,1
2601,8.769257000000001,0.34255979999999997,2.9778748,1
2602,8.8003845,0.41319275,3.037735,1
2603,8.764465,0.43354797,2.824646,1
2604,8.630386,0.4287567,2.9072418,1
2605,8.648346,0.42636108,3.1239166000000003,1
2606,8.6651,0.4299469,3.2280731,1
2607,8.666306,0.45388794,3.1933439999999997,1
2608,8.662704,0.5281066999999999,3.2136993,1
2609,8.627991,0.47903442,3.0844116,1
2610,8.624405,0.4359436,3.1155396,1
2611,8.667496,0.38206482,3.0868073,1
2612,8.693832,0.37010193,3.0832214,1
2613,8.736938,0.36650085,3.0556793,1
2614,8.7764435,0.33657837,3.034134,1
2615,8.711791999999999,0.3497467,3.0042114,1
2616,8.677078,0.43713379999999996,2.9527283,1
2617,8.677078,0.47543335,2.9778748,1
2618,8.701019,0.44311523,2.879715,1
2619,8.753693,0.35333252,2.8940735,1
2620,8.879379,0.27552795,2.9287872000000004,1
2621,8.924881,0.107925415,2.8497772,1
2622,8.820724499999999,0.05406189,2.6618347,1
2623,8.7417145,0.15461731,2.6235352,1
2624,8.746506,0.41319275,2.7169037,1
2625,8.729752000000001,0.45030212,2.9611206,1
2626,8.718979,0.40960693,3.0042114,1
2627,8.7213745,0.3222046,3.09758,1
2628,8.783615,0.23242188,3.0927887000000003,1
2629,8.735733,0.23721313,2.8162689999999997,1
2630,8.635178,0.24919128,2.8821106,1
2631,8.711791999999999,0.36650085,3.0640563999999997,1
2632,8.722565,0.4407196,3.1203307999999996,1
2633,8.707001,0.46228027,3.0832214,1
2634,8.715378,0.48262024,2.9886475,1
2635,8.745316,0.45269775,2.963501,1
2636,8.772842,0.32699585,2.9072418,1
2637,8.763275,0.30065918,2.8737182999999997,1
2638,8.7417145,0.378479,2.9395599999999997,1
2639,8.687851,0.48143005,2.982666,1
2640,8.649536,0.5927581999999999,3.090393,1
2641,8.614822,0.5532531999999999,3.192154,1
2642,8.635178,0.4658661,3.2136993,1
2643,8.657928,0.38804626,3.1670074,1
2644,8.705811,0.38804626,3.1191254,1
2645,8.691436999999999,0.33059692,3.0760345,1
2646,8.705811,0.30665588,3.0496979,1
2647,8.7213745,0.3222046,3.0688477,1
2648,8.754883,0.35453796,3.0317382999999998,1
2649,8.757278,0.36531067,3.0245667000000003,1
2650,8.72377,0.35333252,3.006607,1
2651,8.711791999999999,0.37608337,3.0257568,1
2652,8.744110000000001,0.32460022,2.9958343999999997,1
2653,8.643555000000001,0.2803192,3.1322937,1
2654,8.849457000000001,0.19651794,2.9742889999999997,1
2655,8.684265,0.22285461,2.900055,1
2656,8.650742,0.2515869,3.0269470000000003,1
2657,8.712982,0.2515869,3.2567902,1
2658,8.753693,0.21806335,3.286728,1
2659,8.759674,0.24559021,3.149063,1
2660,8.637573,0.25398254,3.0927887000000003,1
2661,8.678268,0.27552795,3.0628662,1
2662,8.608841,0.30784607,3.169403,1
2663,8.726150500000001,0.30186462,3.1909637,1
2664,8.772842,0.24440002,3.101181,1
2665,8.696228,0.16539001,3.09758,1
2666,8.655533,0.08998108,3.1622314,1
2667,8.660324000000001,0.17855835,3.2184906000000004,1
2668,8.6651,0.24679565,3.2424316,1
2669,8.637573,0.2707367,3.2615814,1
2670,8.641159,0.24798584,3.3106690000000003,1
2671,8.639969,0.1905365,3.231659,1
2672,8.656723,0.20968628,3.207718,1
2673,8.686661,0.24081421,3.2113037,1
2674,8.667496,0.27192688,3.2256775,1
2675,8.614822,0.33537292,3.2723541000000003,1
2676,8.562149,0.40242004,3.3609467000000004,1
2677,8.483139,0.46826172,3.4878387,1
2678,8.551376,0.47782898,3.3872833,1
2679,8.582504,0.49220276,3.4411468999999997,1
2680,8.693832,0.4287567,3.2807465,1
2681,8.64595,0.40960693,3.2029266,1
2682,8.596878,0.47903442,3.2352448,1
2683,8.630386,0.4981842000000001,3.3166504,1
2684,8.596878,0.46705627,3.3238373,1
2685,8.623199000000001,0.44192505,3.2101135,1
2686,8.686661,0.38087463,3.0915985,1
2687,8.705811,0.34495544,2.9599152,1
2688,8.729752000000001,0.36531067,2.958725,1
2689,8.744110000000001,0.35572815,3.0054016,1
2690,8.777633999999999,0.40481567,2.9359741,1
2691,8.746506,0.4084015,2.9970244999999998,1
2692,8.739319,0.42636108,2.982666,1
2693,8.689041,0.44551086,2.9922332999999997,1
2694,8.714188,0.47782898,3.0365295,1
2695,8.717773,0.5077667,3.0389252,1
2696,8.7213745,0.44911194,3.0999756,1
2697,8.708206,0.41198729999999995,3.0173798,1
2698,8.678268,0.40600586,3.0173798,1
2699,8.7213745,0.43354797,2.9658966,1
2700,8.769257000000001,0.36051940000000005,2.9216156000000004,1
2701,8.794388,0.4084015,2.9048462,1
2702,8.756088,0.48143005,2.912033,1
2703,8.714188,0.5352935999999999,2.9790650000000003,1
2704,8.712982,0.5843811,3.0413208,1
2705,8.709396,0.5233306999999999,3.0520935000000002,1
2706,8.7656555,0.48622129999999997,2.927597,1
2707,8.689041,0.46466064,2.7827453999999996,1
2708,8.673492,0.45149229999999996,2.8916779,1
2709,8.777633999999999,0.45509338,2.9371642999999996,1
2710,8.757278,0.45149229999999996,2.9407654,1
2711,8.733336999999999,0.43952942,2.9371642999999996,1
2712,8.763275,0.49578857,2.9539337000000003,1
2713,8.74292,0.5077667,2.934784,1
2714,8.681869500000001,0.52093506,2.9132233,1
2715,8.663910000000001,0.5089569,2.9048462,1
2716,8.807556,0.4359436,2.8976592999999995,1
2717,8.791992,0.37249756,2.8976592999999995,1
2718,8.757278,0.36410522,2.9718932999999996,1
2719,8.711791999999999,0.41677856,3.0939941,1
2720,8.672286999999999,0.45628357,3.1706084999999997,1
2721,8.622009,0.4766388,3.2591857999999996,1
2722,8.559753,0.5700073,3.2460175,1
2723,8.58371,0.5640259,3.2328491,1
2724,8.601654,0.517334,3.2675781,1
2725,8.663910000000001,0.52931213,3.1897583,1
2726,8.667496,0.5017699999999999,3.188568,1
2727,8.683060000000001,0.49578857,3.0808258,1
2728,8.707001,0.52931213,3.0987854,1
2729,8.718979,0.5305023,3.1047667999999997,1
2730,8.696228,0.58078,3.0772247000000004,1
2731,8.675873,0.6143036000000001,3.1825714,1
2732,8.699814,0.5987395999999999,3.0317382999999998,1
2733,8.635178,0.5592345999999999,2.9611206,1
2734,8.647155999999999,0.49699402,2.9898376,1
2735,8.668700999999999,0.541275,3.1430664,1
2736,8.633987,0.6178894,3.2891235,1
2737,8.602859500000001,0.69091797,3.2962952000000003,1
2738,8.592087,0.6538086,3.2939148,1
2739,8.552582000000001,0.6633911,3.263977,1
2740,8.578918,0.67056274,3.2783508,1
2741,8.659119,0.6131134,3.2256775,1
2742,8.635178,0.5747985999999999,3.2005310000000002,1
2743,8.619614,0.5568390000000001,3.1478577000000003,1
2744,8.641159,0.5664215,3.1658173,1
2745,8.655533,0.53170776,3.1969452,1
2746,8.622009,0.59036255,3.2017365,1
2747,8.637573,0.60832214,3.2268677,1
2748,8.595673,0.6095123,3.2532042999999997,1
2749,8.60405,0.64901733,3.2017365,1
2750,8.600464,0.6466217,3.1717987,1
2751,8.630386,0.62028503,3.1801757999999998,1
2752,8.630386,0.59994507,3.2149048,1
2753,8.586089999999999,0.5556488,3.1909637,1
2754,8.619614,0.59754944,3.2508087000000003,1
2755,8.641159,0.5568390000000001,3.3010864,1
2756,8.607650999999999,0.57240295,3.2843322999999995,1
2757,8.566939999999999,0.5987395999999999,3.3226318,1
2758,8.660324000000001,0.56881714,3.1957397000000003,1
2759,8.574127,0.5700073,3.0712433,1
2760,8.572922,0.51493835,3.1346893,1
2761,8.668700999999999,0.5089569,3.2184906000000004,1
2762,8.633987,0.5532531999999999,3.247223,1
2763,8.639969,0.5987395999999999,3.2986907999999997,1
2764,8.608841,0.5448761,3.2591857999999996,1
2765,8.610046,0.57958984,3.2855225,1
2766,8.606444999999999,0.6059265,3.208908,1
2767,8.633987,0.54367065,3.2520142000000005,1
2768,8.639969,0.5245209,3.2615814,1
2769,8.616028,0.5185394,3.2711639999999997,1
2770,8.546585,0.5376892,3.2747498,1
2771,8.611237,0.49099729999999997,3.3429870000000004,1
2772,8.568146,0.65141296,3.3513641000000005,1
2773,8.598068,0.60472107,3.389679,1
2774,8.588486,0.57240295,3.3142547999999996,1
2775,8.594482000000001,0.59036255,3.2699585,1
2776,8.589691,0.5951538000000001,3.2735596,1
2777,8.631592,0.58917236,3.2424316,1
2778,8.633987,0.59394836,3.2232819,1
2779,8.654327,0.57958984,3.1933439999999997,1
2780,8.598068,0.6059265,3.1155396,1
2781,8.623199000000001,0.6143036000000001,3.121521,1
2782,8.64595,0.5951538000000001,3.137085,1
2783,8.707001,0.5676116999999999,3.1430664,1
2784,8.687851,0.59036255,3.2065125,1
2785,8.707001,0.56163025,3.0281525,1
2786,8.618423,0.5951538000000001,3.0101929,1
2787,8.601654,0.6382445999999999,3.0676575,1
2788,8.641159,0.66218567,3.1622314,1
2789,8.622009,0.65979004,3.2184906000000004,1
2790,8.669891,0.63345337,3.2292633,1
2791,8.669891,0.6107178000000001,3.1598357999999998,1
2792,8.612427,0.6382445999999999,3.1334991000000003,1
2793,8.600464,0.6023407,3.1047667999999997,1
2794,8.675873,0.60113525,3.1358947999999995,1
2795,8.675873,0.59394836,3.0652618,1
2796,8.690247,0.5736084,3.0868073,1
2797,8.638763,0.5664215,3.09758,1
2798,8.671097,0.60832214,3.1777954,1
2799,8.703415,0.6131134,3.1442718999999997,1
2800,8.678268,0.66218567,3.0963898,1
2801,8.668700999999999,0.6633911,3.0724487000000003,1
2802,8.623199000000001,0.65859985,3.0532837,1
2803,8.586089999999999,0.6573944,2.9802703999999998,1
2804,8.619614,0.6322631999999999,3.0006104,1
2805,8.696228,0.61550903,3.003006,1
2806,8.729752000000001,0.5855713,3.0520935000000002,1
2807,8.684265,0.64064026,3.0113982999999998,1
2808,8.654327,0.6059265,3.0772247000000004,1
2809,8.653137,0.5819854999999999,3.1131439999999997,1
2810,8.697433,0.59994507,3.1466675,1
2811,8.672286999999999,0.5664215,3.1897583,1
2812,8.736938,0.517334,3.061676,1
2813,8.632782,0.5185394,2.9874419999999997,1
2814,8.574127,0.57240295,3.1442718999999997,1
2815,8.588486,0.5676116999999999,3.2364502,1
2816,8.570541,0.5628357,3.350174,1
2817,8.622009,0.6322631999999999,3.3800964,1
2818,8.669891,0.6059265,3.3142547999999996,1
2819,8.626800999999999,0.6059265,3.2747498,1
2820,8.618423,0.6250763,3.3226318,1
2821,8.633987,0.6023407,3.33461,1
2822,8.602859500000001,0.5783844,3.3058777000000004,1
2823,8.564544999999999,0.5987395999999999,3.216095,1
2824,8.624405,0.6250763,3.2364502,1
2825,8.582504,0.6095123,3.2831268,1
2826,8.58371,0.6131134,3.3142547999999996,1
2827,8.557373,0.6633911,3.3178558,1
2828,8.581314,0.6442260999999999,3.3238373,1
2829,8.595673,0.62028503,3.2843322999999995,1
2830,8.557373,0.6131134,3.2831268,1
2831,8.519058,0.6214905,3.2017365,1
2832,8.523849499999999,0.57240295,3.1275177000000003,1
2833,8.551376,0.6394501,3.1095580000000003,1
2834,8.570541,0.6382445999999999,3.2627869,1
2835,8.624405,0.6035309,3.4160156,1
2836,8.650742,0.5664215,3.3944702000000007,1
2837,8.654327,0.5341034,3.3777008,1
2838,8.608841,0.4287567,3.4519196000000005,1
2839,8.683060000000001,0.4407196,3.2627869,1
