,AccX[m/s^2],AccY[m/s^2],AccZ[m/s^2],label
0,9.152328500000001,-2.4706268,0.9020995999999999,1
1,9.152328500000001,-2.4706268,0.9020995999999999,1
2,8.622009,-2.0767822,0.77041626,1
3,9.003891000000001,-1.8960113999999997,0.92962646,1
4,9.149933,-1.5261078000000001,0.9451904000000001,1
5,9.774811,-2.1653595,0.57289124,1
6,9.295975,-2.1366272,0.07250976599999999,1
7,9.056564,-1.9798126,0.8841399999999999,1
8,8.862625,-1.9391174,0.5226135000000001,1
9,9.169083,-1.7894744999999999,0.49269104,1
10,9.181061,-1.9295349,0.23651123,1
11,9.102051,-2.0815735,0.19221497,1
12,9.041,-2.1258545,0.4328308,1
13,9.193024000000001,-2.016922,0.35144043,1
14,9.147537,-1.9355164,0.3538208,1
15,9.193024000000001,-1.7176513999999998,0.36100770000000004,1
16,9.367797999999999,-1.9438933999999997,-0.042419434000000006,1
17,9.133179,-1.8337708,0.49627686,1
18,8.965575999999999,-1.9235535,0.52381897,1
19,9.268448,-2.1150818,0.8518219000000001,1
20,8.641159,-1.8445435000000001,0.8230896000000001,1
21,8.013885499999999,-1.8684845,-0.01008606,1
22,9.592865,-2.1964874,0.18025208,1
23,9.638351,-2.0851593,0.2736206,1
24,9.245697,-2.4730225,1.1870117,1
25,9.3893585,-2.2395782000000004,1.5976105,1
26,8.718979,-2.3269653,1.5760651,1
27,8.703415,-1.5428772,0.95835876,1
28,9.510254,-1.9450988999999999,0.45558167,1
29,8.466385,-1.9043883999999998,0.66148376,1
30,8.422089,-1.8852386000000003,0.9320221,1
31,9.845444,-2.1749419999999997,0.42565918,1
32,11.298721,-3.282257,-0.7283478,1
33,10.487091,-2.54245,1.8190765,1
34,7.317169,-1.1609955,-0.17408752,1
35,7.5398254,-0.7527771,-2.3193054,1
36,8.501099,-2.6849060000000002,-0.5236510999999999,1
37,6.308014,-1.483017,1.6957703000000002,1
38,7.2860413,-0.36132813,3.5572662000000004,1
39,12.293517999999999,-3.1206512,2.3422089,1
40,15.251555999999999,-4.6708984000000004,-1.3664093000000002,1
41,8.553772,-3.0200958,-12.819077,1
42,7.454834,-2.3676757999999998,4.4479065,1
43,10.22493,-2.3353577000000003,7.247925,1
44,10.591248,-2.4011993,-0.3584442,1
45,8.616028,-2.4442902,-3.0662842,1
46,8.03064,-4.3871765,-8.724991000000001,1
47,10.00705,-2.1091002999999997,2.4738922000000003,1
48,9.291183,-1.0903625,1.5305786,1
49,11.210144,-2.2359923999999998,2.070465,1
50,8.10965,-1.8134154999999998,-0.5104827999999999,1
51,7.1328125,-2.0624084,2.6343078999999996,1
52,7.809173599999999,-2.009735,2.1075744999999997,1
53,8.130005,-1.8445435000000001,0.8697815000000001,1
54,8.970367,-1.858902,0.6471100000000001,1
55,9.289992999999999,-2.1749419999999997,-0.2686615,1
56,9.422867,-1.9343261999999999,-0.23394775,1
57,11.098816000000001,-2.9997406000000004,2.7001494999999998,1
58,9.0733185,-1.2998657,0.87934875,1
59,8.308365,-0.9622803,-0.07473755,1
60,9.458786,-0.5061798,-0.0053100586,1
61,9.240905999999999,-0.51216125,0.8374634,1
62,8.460403,-0.12789917,1.1091919,1
63,10.5720825,-1.9187622,3.5225525,1
64,9.89093,2.8480988,14.940506,1
65,2.9848632999999998,-8.627319,-39.205566,1
66,9.931641,-6.4892883,2.2703857000000003,1
67,13.466675,6.15448,-12.219330000000001,1
68,8.899734500000001,0.90400696,2.3649597,1
69,10.181839,3.11026,0.6459198,1
70,8.478363,1.7527466,0.28559875,1
71,9.513855,1.8221741000000002,-1.9302368000000003,1
72,9.922058,0.21208191,-0.93066406,1
73,10.142334,-0.22366333,1.45755,1
74,10.649902,-0.54689026,0.602829,1
75,10.021423,1.7491608,1.2444763,1
76,7.875015299999999,2.0089264,-0.88397217,1
77,6.110489,1.6617737000000001,0.52500916,1
78,7.493149000000001,2.018509,0.43043518,1
79,9.020645,0.5783844,0.25805664,1
80,9.082901,-0.7958831999999999,-0.025650024,1
81,10.050156,1.8616791000000001,0.22215271,1
82,10.270416,0.2348175,0.75006104,1
83,9.230133,0.11631775,-1.3987273999999998,1
84,7.4117429999999995,2.528473,0.53578186,1
85,10.692993,-0.41400146,0.6758423000000001,1
86,9.811935,-1.1358643,0.44480896,1
87,9.041,-1.1083221,-0.063964844,1
88,8.966782,-0.7851104999999999,0.93562317,1
89,8.987122,0.5269165,1.7987213,1
90,9.232529,-0.68814087,-0.9797363000000001,1
91,8.572922,0.43234253,0.3490448,1
92,8.887772,1.5971222,0.21496582,1
93,8.750107,1.5264893,-0.07952881,1
94,10.185425,-1.3968201,-0.5727234,1
95,8.009094000000001,-0.79348755,-1.516037,1
96,9.762848,-2.1138916,-2.7263184,1
97,9.653915,-2.8800354,-0.44703674,1
98,8.314362,-3.1924744,-2.7442627,1
99,7.8355103,-2.0193176,-1.3783722,1
100,8.872208,-1.4770355,-1.5926513999999998,1
101,8.977554,-0.49061584,-1.7913818,1
102,8.392166,0.675354,-2.005661,1
103,8.689041,1.7814789,-2.1433258,1
104,8.337097,2.5105133,-1.7470856,1
105,9.254074000000001,2.670929,-2.6305389999999997,1
106,10.218948,0.64901733,-2.6329346,1
107,8.715378,-0.5780029000000001,-2.3372498,1
108,8.015075999999999,-0.60913086,-1.9075011999999998,1
109,8.18985,-0.15423584,-1.6896209999999998,1
110,8.669891,0.5736084,-1.8105316000000002,1
111,9.0733185,0.91596985,-1.9972839,1
112,9.199005,1.0117493,-2.2366943,1
113,9.826294,0.8237915000000001,-2.5407562,1
114,9.906494,0.6669769,-2.55513,1
115,9.574905000000001,0.7400055,-2.3827515,1
116,8.736938,0.73880005,-2.563507,1
117,9.067337,0.69929504,-2.6975860000000003,1
118,8.418503,0.68133545,-2.5874481,1
119,7.9384613,0.71006775,-2.4940796,1
120,7.5278625,0.91477966,-2.8125,1
121,7.744537400000001,1.1374358999999998,-3.2458496,1
122,7.1878815000000005,1.2391968,-3.2602234,1
123,6.832351700000001,1.0895538,-2.9178467,1
124,6.600113,1.0931396,-3.3152923999999997,1
125,6.810791,1.0261078000000001,-4.1544495,1
126,6.5570070000000005,0.9997710999999999,-4.425003,1
127,5.722625700000001,1.1949005,-4.2777557,1
128,5.2545624,1.1529999,-3.7043457,1
129,4.6787567,1.1960906999999998,-3.8468017999999997,1
130,4.3303986,0.9566803,-3.7306824,1
131,3.5403137000000005,1.0895538,-3.2255096,1
132,3.3415985,1.7515564,-1.8189087,1
133,3.8563538,1.4893798999999999,-0.7283478,1
134,4.277725,0.15701294,-1.2119751,1
135,5.1635895,-0.9766388,-2.2522583,1
136,5.596939,-1.2675323,-5.1983337,1
137,6.9628296,-0.9622803,-8.058197,1
138,9.094864,0.31622314,-9.061371000000001,1
139,7.365051299999999,2.881607,-7.956451400000001,1
140,7.986343400000001,2.7535248,-7.649994,1
141,8.669891,0.9578705,-6.835952799999999,1
142,8.459197999999999,1.2236328,-7.4584503,1
143,8.282028,2.4650269000000002,-8.607666,1
144,7.6427765,3.024063,-8.912933,1
145,8.480758999999999,1.6928863999999997,-9.584503,1
146,8.896149000000001,1.6114959999999998,-10.178268,1
147,8.382584,1.4450988999999999,-8.320358,1
148,8.546585,1.0488586000000002,-6.3439484,1
149,10.093246,0.6549988,-5.285721,1
150,13.3302,0.50416565,-5.9836273,1
151,15.863266000000001,1.0081482,-6.378662,1
152,16.282257,1.571991,-9.329528999999999,1
153,14.230423000000002,1.7120514,-10.426071,1
154,14.380066000000001,2.0651855,-9.013489,1
155,11.298721,2.3345337,-6.25177,1
156,8.043808,1.0799713,-3.0076294,1
157,4.420181299999999,0.35693359999999996,0.37896729999999995,1
158,3.177597,-0.4559021,1.8861237000000002,1
159,1.9254303,-1.0616302,3.1957397000000003,1
160,4.587784,-0.95269775,1.8298491999999997,1
161,8.234146,-0.17936707,-0.9151001,1
162,11.772781,0.16299438,-3.4469604,1
163,12.455124,0.78907776,-4.4226074,1
164,11.386108,1.1697540000000002,-4.2717743,1
165,10.677429,1.1039124,-2.5898437999999997,1
166,9.977127000000001,0.80703735,-1.0372009,1
167,9.147537,0.45388794,-0.39555359999999995,1
168,8.220978,-0.39964294,-0.024459839,1
169,8.048599000000001,-0.7671509,0.29637146,1
170,8.053390499999999,-0.5612488,0.45797730000000003,1
171,8.429275500000001,-0.042907715,0.176651,1
172,8.873398,0.3964386,-0.47216797,1
173,8.997894,0.40481567,-0.8947449000000001,1
174,8.940445,0.26834106,-0.7235564999999999,1
175,9.151123,0.0049743652,-0.42907715,1
176,9.67186,-0.5720215,-0.63856506,1
177,9.740097,-0.59117126,-1.1353607,1
178,9.524628,-0.24281311,-1.1461333999999999,1
179,9.319916000000001,0.064834595,-0.98931885,1
180,9.537796,-0.14825439999999998,-0.6014556999999999,1
181,9.798767,-0.43196106,-0.50090027,1
182,9.88974,-0.32661438,-0.30458070000000004,1
183,9.633560000000001,0.057647705,0.065322876,1
184,9.388152999999999,0.21687317,0.074905396,1
185,9.218169999999999,0.10913086,-0.39315796,1
186,9.299576,0.26594543,-0.8253174000000001,1
187,9.147537,0.5089569,-1.3065491000000002,1
188,9.002686,0.48501587,-1.9122772000000001,1
189,9.048172000000001,0.24559021,-2.4234467,1
190,9.345061999999999,-0.069244385,-2.7562408,1
191,9.724533000000001,-0.026138306,-2.8711548,1
192,10.056137,0.52093506,-2.4821014,1
193,9.404907000000001,1.0320892,-2.1062164,1
194,9.280411,1.121872,-1.9398193,1
195,9.114014,0.87527466,-1.7506714,1
196,8.5849,0.94351196,-1.4238739,1
197,8.716583,0.9351349,-1.3125305,1
198,8.837494,0.9530791999999999,-1.2850037,1
199,8.764465,1.1829223999999998,-1.2598572000000001,1
200,9.183456,0.91596985,-1.2730255,1
201,9.225342,0.49099729999999997,-1.4597778000000001,1
202,9.06015,0.31503296,-1.5040741000000002,1
203,8.916504,0.60472107,-1.416687,1
204,9.009872,0.9064026,-1.1102295,1
205,9.159514999999999,0.85731506,-1.4789276000000002,1
206,9.300766000000001,0.36291504,-1.7159576,1
207,9.288788,0.18933105,-2.0415650000000003,1
208,9.257675,0.6573944,-2.0164337,1
209,8.789597,0.512558,-2.16008,1
210,8.681869500000001,-0.39126587,-1.9338379,1
211,8.738128999999999,-1.0017853,-2.1672667999999997,1
212,9.529419,-0.77552795,-1.8979186999999997,1
213,9.481522,-0.15184021,-1.9062957999999999,1
214,9.792769999999999,0.12469482400000001,-1.6189879999999999,1
215,9.813125999999999,0.18334961,-1.3292999,1
216,9.299576,-0.050079346,-0.95700073,1
217,9.041,-0.37210083,-0.30097959999999996,1
218,8.480758999999999,-0.12669373,-0.4350585999999999,1
219,8.703415,0.32580566,-0.5823059,1
220,8.710602,0.53289795,-0.64216614,1
221,8.940445,0.41079712,-0.84088135,1
222,9.227737,0.5269165,-1.1820526000000002,1
223,9.679047,0.36531067,-1.0419922,1
224,9.704193,0.2132721,-0.97016907,1
225,9.643142999999998,0.02293396,-1.1018523999999998,1
226,9.702988000000001,-0.102752686,-0.59547424,1
227,9.701797500000001,-0.30986023,-0.38478088,1
228,9.530609,-0.21647644,-0.07952881,1
229,9.359421000000001,-0.23564148,-0.09030151,1
230,9.082901,0.036102295,0.08567810000000001,1
231,8.880585,0.25517273,0.074905396,1
232,8.812347,0.22883606,0.5190277,1
233,8.802764999999999,0.35572815,0.8218994000000001,1
234,8.777633999999999,0.50416565,1.0289917,1
235,9.021835000000001,0.59036255,1.1918030000000002,1
236,8.911713,0.41079712,1.2025757,1
237,9.278015,0.28390503,1.3198853000000002,1
238,9.346252,0.03730774,1.2971496999999999,1
239,9.319916000000001,0.03491211,1.2504578000000002,1
240,9.348647999999999,0.008575439,1.5126190000000002,1
241,8.630386,0.18693542,1.0673065000000002,1
242,8.732147,0.24919128,1.1499023000000002,1
243,8.619614,0.22525024,0.9092865,1
244,8.837494,-0.22845459,1.0852509,1
245,9.189438,-0.46667479999999995,0.8506316999999999,1
246,9.165497,-0.03930664,0.5860595999999999,1
247,9.155914,0.35453796,0.54177856,1
248,8.942825,0.55085754,0.15989685,1
249,9.55455,0.46347046,0.28559875,1
250,9.461182,0.68852234,0.13835144,1
251,9.519836,0.7986603,0.24369812,1
252,9.507858,0.6968994000000001,0.22573853,1
253,9.555756,0.52212524,0.31072998,1
254,9.455185,0.45030212,0.3143158,1
255,9.17627,0.38804626,0.4807129,1
256,9.048172000000001,0.45867920000000006,0.72732544,1
257,9.033813,0.51135254,0.99546814,1
258,8.995499,0.5484619000000001,1.1546936,1
259,9.029022,0.5664215,1.1391296,1
260,9.13916,0.52093506,1.1056061000000001,1
261,9.200211,0.45269775,1.1714478000000002,1
262,9.169083,0.48262024,1.1846161,1
263,9.166687,0.59155273,1.2588348,1
264,9.109222,0.7076720999999999,1.3689728,1
265,9.084091,0.79745483,1.3749542,1
266,9.148727000000001,0.8202056999999999,1.349823,1
267,9.091277999999999,0.8118286,1.2037659,1
268,9.06015,0.7819060999999999,1.0984192,1
269,9.054169,0.79267883,1.0170288,1
270,9.003891000000001,0.9291381999999999,0.98469543,1
271,8.884171,1.0787811,0.9116820999999999,1
272,8.957199000000001,1.0871582,0.8518219000000001,1
273,9.033813,1.1134948999999998,0.73809814,1
274,9.15831,1.0751953,0.666275,1
275,9.203796,0.9710388000000001,0.50227356,1
276,9.264847,0.9758300999999999,0.4040985,1
277,9.313934,1.0045624,0.3598175,1
278,9.23851,1.0165253,0.28678894,1
279,9.14035,0.9638519,0.17306519,1
280,9.062546000000001,0.9710388000000001,0.07369995,1
281,9.011063,1.051239,0.053359985,1
282,8.933258,1.2547607,-0.03642273,1
283,8.868607,1.3864288,-0.063964844,1
284,8.845871,1.4786072000000001,-0.03163147,1
285,9.031417999999999,1.5312805,-0.025650024,1
286,9.230133,1.556427,-0.24232483,1
287,9.391739,1.3876343,-0.45420837,1
288,9.307953,1.1506041999999999,-0.63497925,1
289,9.264847,0.95188904,-0.55836487,1
290,9.206192,0.9399109,-0.50450134,1
291,9.128387,1.0440674,-0.6289978,1
292,9.025436000000001,1.200882,-0.74272156,1
293,8.953613,1.3493195,-0.86361694,1
294,8.989517,1.4786072000000001,-0.9629822,1
295,9.048172000000001,1.556427,-1.0575562,1
296,9.178664999999999,1.5839538999999998,-1.2287445,1
297,9.272034,1.655777,-1.3424683000000002,1
298,9.328292999999999,1.6988830000000001,-1.4358368000000001,1
299,9.2708435,1.6904907,-1.456192,1
300,9.116408999999999,1.7060547,-1.456192,1
301,9.102051,1.6473999,-1.4358368000000001,1
302,9.096069,1.5528258999999998,-1.4071045,1
303,9.163101,1.5205078,-1.4789276000000002,1
304,9.170288000000001,1.5432587,-1.3939362,1
305,9.197815,1.6916962,-1.2179718000000002,1
306,9.104446000000001,1.7826691000000003,-1.0216370000000001,1
307,8.82193,1.6940918000000003,-0.85523987,1
308,8.545395,1.5516357,-0.84806824,1
309,8.458008,1.4175568,-1.0814972,1
310,8.838683999999999,1.5252991000000002,-1.2000122,1
311,9.197815,1.6473999,-1.234726,1
312,9.491104,1.7132416000000001,-1.3221129999999999,1
313,9.740097,1.7180328,-1.3197173999999998,1
314,9.719757000000001,1.6486053,-1.2131805,1
315,9.360626,1.5887451000000001,-0.8576355,1
316,8.905716,1.5288848999999998,-0.614624,1
317,8.295197,1.4474791999999999,-0.5834961,1
318,8.220978,1.4151611000000002,-0.8348999,1
319,8.498702999999999,1.4139709999999999,-0.7690581999999999,1
320,9.074508999999999,1.4486847,-0.8767853000000001,1
321,9.458786,1.5217133,-1.0922698999999998,1
322,9.699402000000001,1.5217133,-1.219162,1
323,9.63475,1.5420532,-1.1162108999999998,1
324,9.330688,1.4427032,-0.96058655,1
325,9.032608,1.3924254999999999,-0.7295531999999999,1
326,8.794388,1.3110198999999998,-0.5140686,1
327,8.690247,1.3457336000000002,-0.377594,1
328,8.662704,1.3995971999999999,-0.39555359999999995,1
329,8.728546000000001,1.461853,-0.551178,1
330,8.975159,1.5444489,-0.7475128000000001,1
331,9.194229,1.5707855,-0.8360901,1
332,9.31633,1.556427,-0.9115143,1
333,9.327103,1.5037537,-0.961792,1
334,9.206192,1.4510802999999999,-0.9474181999999999,1
335,9.044586,1.374466,-0.8600310999999999,1
336,8.911713,1.3553162,-0.78700256,1
337,8.963181,1.2751006999999999,-0.75468445,1
338,9.062546000000001,1.2822876,-0.72476196,1
339,9.110428,1.3373566000000001,-0.7415161,1
340,9.130783000000001,1.4127655000000001,-0.7475128000000001,1
341,9.0733185,1.5300903000000001,-0.6613159000000001,1
342,9.080505,1.492981,-0.57632446,1
343,9.056564,1.453476,-0.417099,1
344,9.090073,1.4151611000000002,-0.43745422,1
345,9.082901,1.3936157,-0.44224548,1
346,9.091277999999999,1.4175568,-0.45541382,1
347,9.110428,1.3936157,-0.44104004,1
348,9.153519000000001,1.3361511000000001,-0.535614,1
349,9.143951,1.2846832000000001,-0.58470154,1
350,9.020645,1.2846832000000001,-0.5104827999999999,1
351,9.110428,1.2834778,-0.5619506999999999,1
352,9.068527,1.3648833999999999,-0.5942688,1
353,9.043396000000001,1.3804473999999998,-0.6577301,1
354,9.043396000000001,1.3553162,-0.6337738,1
355,9.124786,1.2942505,-0.6253966999999999,1
356,9.170288000000001,1.2930603,-0.6038513000000001,1
357,9.154724,1.3792572,-0.6289978,1
358,9.14035,1.3373566000000001,-0.6289978,1
359,9.088882,1.3565063,-0.7115935999999999,1
360,9.064941000000001,1.3529205,-0.6732788000000001,1
361,9.087677000000001,1.3229828000000001,-0.6589203,1
362,9.128387,1.382843,-0.6373749,1
363,9.135558999999999,1.358902,-0.6325835999999999,1
364,9.082901,1.3708649,-0.6397705,1
365,9.090073,1.3816528000000001,-0.6194153,1
366,9.075714,1.3720703,-0.6014556999999999,1
367,9.091277999999999,1.3349608999999998,-0.614624,1
368,9.102051,1.3505249,-0.60505676,1
369,9.072113,1.3672790000000001,-0.51646423,1
370,9.064941000000001,1.3864288,-0.46858215,1
371,9.091277999999999,1.3481292999999999,-0.51646423,1
372,9.080505,1.3313751,-0.57751465,1
373,9.069733,1.3553162,-0.54519653,1
374,9.054169,1.3720703,-0.5128784000000001,1
375,9.069733,1.3648833999999999,-0.5571594,1
376,9.092467999999998,1.3349608999999998,-0.590683,1
377,9.084091,1.3122101000000002,-0.6122284,1
378,9.109222,1.3110198999999998,-0.58828735,1
379,9.084091,1.2595367,-0.66490173,1
380,9.143951,1.3002472,-0.6685028000000001,1
381,9.084091,1.2128601,-0.71398926,1
382,9.129578,1.1913147,-0.81333923,1
383,9.233734,1.2056732,-0.7917938,1
384,9.240905999999999,1.2535553,-0.83369446,1
385,9.094864,1.279892,-0.7558899,1
386,9.106842,1.2595367,-0.69363403,1
387,9.064941000000001,1.3768616000000002,-0.7702484,1
388,9.005081,1.4247437,-0.68525696,1
389,9.003891000000001,1.398407,-0.6505432,1
390,9.092467999999998,1.3146057,-0.590683,1
391,9.102051,1.2583466,-0.61701965,1
392,9.114014,1.3241882,-0.49731445,1
393,9.082901,1.4091797,-0.51527405,1
394,8.92128,1.3888245000000001,-0.72595215,1
395,8.839889999999999,1.0943451000000002,-1.0168457,1
396,8.683060000000001,0.85731506,-0.8540496999999999,1
397,8.657928,0.9363251,-0.6194153,1
398,9.041,1.1123047,-0.7846221999999999,1
399,9.444412,1.3756561,-1.1054382,1
400,9.444412,1.4283295,-1.5363921999999999,1
401,9.200211,1.358902,-1.8691863999999998,1
402,9.054169,1.4450988999999999,-1.2873993000000001,1
403,9.035003999999999,1.4319305,-0.7582855,1
404,9.546173,1.4127655000000001,-0.2973938,1
405,9.0577545,1.5097351,-0.788208,1
406,8.7764435,1.3840332,-0.9725647,1
407,8.578918,1.145813,-0.6792755,1
408,8.197037,1.3792572,-0.8384857,1
409,8.083313,2.1022950000000002,-1.4394226,1
410,8.550186,2.5224762000000003,-1.8260956000000002,1
411,9.284011999999999,2.4362946,-1.5328064,1
412,9.658707000000001,1.8975983,-1.8284912,1
413,9.931641,1.5624083999999998,-1.9170685,1
414,9.857422,1.5312805,-2.0726929,1
415,8.892548,1.6569824,-2.5263977000000004,1
416,8.325134,2.2315826000000003,-2.757431,1
417,8.1527405,2.3297423999999998,-2.2067718999999997,1
418,8.492722,1.7982330000000002,-1.8751678,1
419,8.456802,1.5839538999999998,-1.3939362,1
420,9.123596000000001,1.288269,-0.93066406,1
421,8.905716,0.8525238000000002,-1.0216370000000001,1
422,8.791992,0.512558,-0.47216797,1
423,9.440826,0.24320984,-0.79299927,1
424,10.00705,0.6131134,-0.88038635,1
425,9.977127000000001,0.89323425,-1.0683288999999998,1
426,9.825104,1.3888245000000001,-1.7997589,1
427,9.355835,1.6497955000000002,-1.9936828999999998,1
428,8.935654,1.719223,-2.076294,1
429,8.667496,1.6378326,-2.3037415,1
430,8.732147,1.5504303,-2.508438,1
431,8.602859500000001,1.4043883999999998,-2.428238,1
432,8.516663000000001,0.58078,-1.5758972,1
433,8.697433,0.21687317,-0.966568,1
434,8.969161999999999,-0.16979979999999997,-0.70440674,1
435,9.552155,-0.3074646,-0.966568,1
436,9.825104,-0.4487152,-1.456192,1
437,10.004653999999999,-0.47865295,-1.7195586999999999,1
438,9.781998,0.007369995,-1.7363129000000002,1
439,9.433639999999999,0.5556488,-1.6046295,1
440,8.880585,1.0955353,-1.7111664,1
441,8.784821,1.3888245000000001,-1.7075806,1
442,8.745316,1.576767,-1.7243346999999998,1
443,8.714188,1.6234589,-1.7267303,1
444,8.672286999999999,1.8401337,-1.4765472,1
445,8.666306,1.8664703,-1.3699951000000001,1
446,8.835098,1.8150023999999998,-1.3029633,1
447,9.052963,1.5217133,-1.1892395,1
448,9.305557,1.2691193,-1.0802916999999999,1
449,9.273239,1.2320098999999998,-1.0719147,1
450,9.142746,1.2260284,-1.0252379999999999,1
451,8.987122,1.2176361,-1.0240326,1
452,8.844666,1.1637726000000002,-0.9749603000000001,1
453,8.790802000000001,1.2164458999999999,-0.9330596999999999,1
454,8.922485,1.358902,-0.9941101000000001,1
455,8.966782,1.4163666000000001,-0.9510193000000001,1
456,8.945221,1.3972015,-0.9246825999999999,1
457,8.892548,1.3158112,-0.9689636,1
458,8.917694000000001,1.3170013,-1.0599518,1
459,9.021835000000001,1.3265839,-1.0551605,1
460,9.085281,1.4079895,-0.9438324,1
461,9.184647,1.374466,-1.0120697,1
462,9.072113,1.3792572,-1.1030426000000002,1
463,8.946425999999999,1.3816528000000001,-1.1221923999999999,1
464,8.784821,1.3864288,-1.0922698999999998,1
465,8.851852000000001,1.4008026000000002,-0.9833374,1
466,9.036209,1.3936157,-1.0467834,1
467,9.135558999999999,1.4414978,-1.3053589,1
468,9.131973,1.4558716,-1.4657593,1
469,9.006287,1.4678345,-1.4753418,1
470,8.849457000000001,1.5157166000000002,-1.3484497,1
471,8.769257000000001,1.5791626,-1.3664093000000002,1
472,8.791992,1.5444489,-1.5196381,1
473,8.837494,1.4857941000000001,-1.8009491000000002,1
474,8.788406,1.4857941000000001,-2.1110077,1
475,8.775238,1.406784,-2.1900177000000003,1
476,8.795592999999998,1.3445435,-2.2139587000000005,1
477,8.879379,1.2595367,-2.1828307999999996,1
478,8.818328999999999,1.2691193,-2.2163543999999997,1
479,8.835098,1.2727051,-2.2809906000000004,1
480,8.896149000000001,1.2631378,-2.3193054,1
481,9.042191,1.145813,-2.7023772999999998,1
482,9.066132000000001,1.1027221999999999,-2.9429932,1
483,9.07811,1.085968,-3.0375519,1
484,9.103241,1.1314545,-3.1093903,1
485,8.993117999999999,1.164978,-3.1201630000000002,1
486,8.873398,1.2104645,-2.9477692,1
487,8.74292,1.248764,-2.7107544,1
488,8.717773,1.2643280000000001,-2.6987762,1
489,8.735733,1.2463684,-2.6473082999999997,1
490,8.8051605,1.2511596999999999,-2.6197662,1
491,8.799178999999999,1.2236328,-2.6676482999999998,1
492,8.794388,1.2379913,-2.6389313,1
493,8.736938,1.2499695,-2.6724396,1
494,8.732147,1.2463684,-2.6401215000000002,1
495,8.865021,1.1841278,-2.63414,1
496,8.927277,1.1314545,-2.717926,1
497,8.953613,1.0033569,-2.8053284,1
498,8.911713,0.9578705,-2.7598267000000005,1
499,8.847061,0.9494934000000002,-2.7825775,1
500,8.849457000000001,0.9710388000000001,-2.73349,1
501,8.768051,1.0153351000000002,-2.6508942,1
502,8.718979,1.0991364,-2.5766754,1
503,8.7213745,1.1206818,-2.500061,1
504,8.770447,1.1901093,-2.4689330000000003,1
505,8.860229499999999,1.2379913,-2.4545746,1
506,8.951217999999999,1.2451782,-2.4246368,1
507,8.978744500000001,1.2463684,-2.412674,1
508,8.90213,1.2391968,-2.4066925,1
509,8.790802000000001,1.2535553,-2.3372498,1
510,8.746506,1.2858733999999998,-2.3049316,1
511,8.768051,1.2607422,-2.2582397000000003,1
512,8.802764999999999,1.2368011,-2.3216857999999996,1
513,8.819533999999999,1.2164458999999999,-2.2893677,1
514,8.844666,1.2200316999999998,-2.271408,1
515,8.929672,1.2368011,-2.4222565,1
516,8.92128,1.2822876,-2.4593658,1
517,8.856644000000001,1.2774963,-2.3300781,1
518,8.795592999999998,1.2978516000000002,-2.2570495999999998,1
519,8.790802000000001,1.2906647,-2.2761993,1
520,8.782425,1.2511596999999999,-2.2570495999999998,1
521,8.795592999999998,1.2834778,-2.2761993,1
522,8.799178999999999,1.2858733999999998,-2.2761993,1
523,8.8051605,1.2619323999999998,-2.251068,1
524,8.82193,1.2643280000000001,-2.2582397000000003,1
525,8.879379,1.2763062,-2.2761993,1
526,8.926071,1.3241882,-2.3480225,1
527,8.928467,1.3146057,-2.3145142000000005,1
528,8.871002,1.3158112,-2.3324738,1
529,8.838683999999999,1.2870788999999998,-2.2953491,1
530,8.847061,1.3445435,-2.3468322999999995,1
531,8.813553,1.3289795,-2.3336639999999997,1
532,8.809952000000001,1.3612976,-2.3444366000000003,1
533,8.82193,1.3289795,-2.3169098,1
534,8.848267,1.3086243,-2.2881775,1
535,8.897339,1.2810822,-2.3145142000000005,1
536,8.891357000000001,1.2739105,-2.2881775,1
537,8.92009,1.2858733999999998,-2.2594452,1
538,8.851852000000001,1.3146057,-2.2462769000000002,1
539,8.838683999999999,1.327774,-2.2355042000000003,1
540,8.844666,1.3146057,-2.2378998,1
541,8.856644000000001,1.3253784,-2.2462769000000002,1
542,8.82193,1.3289795,-2.2678222999999997,1
543,8.813553,1.3361511000000001,-2.2977448,1
544,8.878189,1.3098145,-2.2833862000000003,1
545,8.908112,1.2822876,-2.2534637,1
546,8.836288,1.2774963,-2.266632,1
547,8.806366,1.2966461,-2.203186,1
548,8.88298,1.3397522,-2.2833862000000003,1
549,8.896149000000001,1.3720703,-2.3875275,1
550,8.873398,1.3385468,-2.3288727000000002,1
551,8.872208,1.2643280000000001,-2.2774048,1
552,8.865021,1.2499695,-2.2905731,1
553,8.850662,1.2906647,-2.2929687999999997,1
554,8.820724499999999,1.3349608999999998,-2.2582397000000003,1
555,8.769257000000001,1.3421478,-2.2833862000000003,1
556,8.801575,1.3146057,-2.2630310000000002,1
557,8.830307000000001,1.3361511000000001,-2.251068,1
558,8.90094,1.3337555,-2.2678222999999997,1
559,8.92128,1.319397,-2.2798004,1
560,8.884171,1.3289795,-2.3121185,1
561,8.861435,1.327774,-2.2774048,1
562,8.819533999999999,1.3241882,-2.2750092,1
563,8.815933,1.3170013,-2.230713,1
564,8.836288,1.3385468,-2.2414856,1
565,8.843475,1.3205871999999999,-2.2594452,1
566,8.833893,1.3253784,-2.2833862000000003,1
567,8.863831,1.3708649,-2.3049316,1
568,8.863831,1.3313751,-2.3228912,1
569,8.865021,1.319397,-2.2678222999999997,1
570,8.84227,1.2894745,-2.2594452,1
571,8.832703,1.2691193,-2.2426909999999998,1
572,8.867416,1.2691193,-2.2558594,1
573,8.855438000000001,1.2547607,-2.2342987,1
574,8.862625,1.2679291000000001,-2.2259216,1
575,8.867416,1.2667236000000002,-2.1828307999999996,1
576,8.894943,1.3265839,-2.211563,1
577,8.878189,1.3349608999999998,-2.2199402000000004,1
578,8.88298,1.3756561,-2.2881775,1
579,8.838683999999999,1.3445435,-2.2079619999999998,1
580,8.851852000000001,1.3349608999999998,-2.1959991000000003,1
581,8.922485,1.3361511000000001,-2.1864166000000003,1
582,8.860229499999999,1.319397,-2.2019806,1
583,8.830307000000001,1.3289795,-2.1744537,1
584,8.918884,1.3229828000000001,-2.278595,1
585,8.869812,1.3660888999999998,-2.3336639999999997,1
586,8.839889999999999,1.3421478,-2.2642365,1
587,8.838683999999999,1.3002472,-2.227127,1
588,8.879379,1.2894745,-2.2355042000000003,1
589,8.906921,1.3469238000000001,-2.2426909999999998,1
590,8.854248,1.3864288,-2.2283173,1
591,8.830307000000001,1.3840332,-2.2259216,1
592,8.849457000000001,1.3672790000000001,-2.230713,1
593,8.849457000000001,1.3146057,-2.23909,1
594,8.890167,1.3565063,-2.2199402000000004,1
595,8.905716,1.3158112,-2.2857819,1
596,8.887772,1.3205871999999999,-2.2738037,1
597,8.847061,1.2930603,-2.2558594,1
598,8.836288,1.3014374,-2.2534637,1
599,8.859039,1.3481292999999999,-2.2007904,1
600,8.855438000000001,1.3361511000000001,-2.2091675,1
601,8.866211,1.3253784,-2.2199402000000004,1
602,8.873398,1.3636932,-2.187622,1
603,8.874603,1.3529205,-2.2079619999999998,1
604,8.880585,1.3565063,-2.199585,1
605,8.891357000000001,1.3541107,-2.1864166000000003,1
606,8.848267,1.3253784,-2.1971893,1
607,8.845871,1.358902,-2.1959991000000003,1
608,8.848267,1.3636932,-2.2223357999999998,1
609,8.871002,1.3349608999999998,-2.2199402000000004,1
610,8.869812,1.3529205,-2.2486725,1
611,8.862625,1.3732605,-2.2283173,1
612,8.893753,1.3565063,-2.230713,1
613,8.874603,1.3900298999999998,-2.2211304,1
614,8.832703,1.3541107,-2.2558594,1
615,8.872208,1.3373566000000001,-2.2007904,1
616,8.896149000000001,1.3361511000000001,-2.1971893,1
617,8.856644000000001,1.3684844999999999,-2.2067718999999997,1
618,8.819533999999999,1.3158112,-2.1720580000000003,1
619,8.871002,1.3493195,-2.2402954,1
620,8.863831,1.4127655000000001,-2.3360596,1
621,8.855438000000001,1.3756561,-2.2259216,1
622,8.839889999999999,1.3445435,-2.1852264,1
623,8.862625,1.2966461,-2.179245,1
624,8.922485,1.3553162,-2.2199402000000004,1
625,8.855438000000001,1.4008026000000002,-2.211563,1
626,8.806366,1.3948212,-2.1959991000000003,1
627,8.836288,1.4115753,-2.1744537,1
628,8.873398,1.3864288,-2.2007904,1
629,8.894943,1.3253784,-2.2342987,1
630,8.897339,1.3517151,-2.2402954,1
631,8.875793,1.3684844999999999,-2.2726135,1
632,8.84108,1.3708649,-2.1888123,1
633,8.84227,1.3517151,-2.2151490000000003,1
634,8.867416,1.3636932,-2.23909,1
635,8.899734500000001,1.3421478,-2.2199402000000004,1
636,8.90213,1.3780518,-2.227127,1
637,8.897339,1.4091797,-2.2582397000000003,1
638,8.903336,1.3912201000000002,-2.2630310000000002,1
639,8.929672,1.3636932,-2.2199402000000004,1
640,8.950012,1.2834778,-2.211563,1
641,8.911713,1.2894745,-2.16008,1
642,8.869812,1.2918701000000001,-2.1744537,1
643,8.836288,1.3373566000000001,-2.124176,1
644,8.794388,1.3864288,-2.069107,1
645,8.802764999999999,1.3600922,-2.0894623,1
646,8.8051605,1.3481292999999999,-2.1540985,1
647,8.856644000000001,1.3265839,-2.1481169999999996,1
648,8.862625,1.3816528000000001,-2.1313477,1
649,8.878189,1.374466,-2.1349487000000003,1
650,8.924881,1.4019928,-2.151703,1
651,8.969161999999999,1.4008026000000002,-2.2163543999999997,1
652,8.988327,1.4570618,-2.2127533,1
653,8.90094,1.4558716,-2.13974,1
654,8.888962,1.437912,-2.0403748,1
655,8.910507,1.437912,-2.2007904,1
656,8.886566,1.5073395,-2.2606354,1
657,8.891357000000001,1.4965667999999999,-2.2199402000000004,1
658,8.833893,1.5193176000000002,-2.1493073,1
659,8.832703,1.5073395,-2.1457214,1
660,8.837494,1.5312805,-2.1313477,1
661,8.887772,1.6222687,-2.1301575,1
662,8.854248,1.6845093,-2.1121979,1
663,8.84227,1.719223,-2.1588898,1
664,8.814743,1.6653595,-2.1253662,1
665,8.780028999999999,1.6378326,-2.0846709999999997,1
666,8.829102,1.5635986000000002,-2.014038,1
667,8.844666,1.5276947,-2.0032654,1
668,8.82193,1.5145263999999998,-1.9434052,1
669,8.824326,1.4798126,-1.8811646,1
670,8.869812,1.4403076000000001,-1.8883362000000001,1
671,9.091277999999999,1.3852386,-1.7554626,1
672,9.035003999999999,1.4666443,-1.8069457999999998,1
673,9.06134,1.4175568,-1.7806091,1
674,9.067337,1.3912201000000002,-1.753067,1
675,8.978744500000001,1.3325653,-1.8141174,1
676,8.953613,1.398407,-1.8524323,1
677,8.951217999999999,1.4055939,-1.9338379,1
678,8.7608795,1.5504303,-2.012848,1
679,8.783615,1.580368,-1.8907318,1
680,8.778824,1.6497955000000002,-1.8787688999999999,1
681,8.853058,1.6833191000000003,-1.9015045,1
682,8.944030999999999,1.6497955000000002,-1.9625702,1
683,9.005081,1.6976776000000002,-2.0619202000000003,1
684,8.928467,1.6940918000000003,-2.0918427,1
685,8.856644000000001,1.7371826000000001,-1.9505919999999999,1
686,8.771652,1.7120514,-1.7566681,1
687,8.744110000000001,1.7371826000000001,-1.6417389,1
688,8.758484,1.7156372,-1.6094208,1
689,8.815933,1.7467651000000002,-1.5890656,1
690,8.947617,1.8054199,-1.7363129000000002,1
691,8.926071,1.8030243000000001,-1.7207488999999998,1
692,8.924881,1.7276154,-1.6405487,1
693,9.0793,1.6462096999999998,-1.590271,1
694,8.922485,1.6114959999999998,-1.6596985,1
695,8.887772,1.5839538999999998,-1.658493,1
696,8.867416,1.6294403,-1.697998,1
697,8.872208,1.6581726000000003,-1.7734221999999997,1
698,8.875793,1.7108459999999999,-1.847641,1
699,8.885375999999999,1.7347869999999999,-1.8967285,1
700,8.891357000000001,1.7180328,-1.926651,1
701,8.904525999999999,1.7096558000000002,-1.9374237,1
702,8.891357000000001,1.679718,-1.8835601999999998,1
703,8.862625,1.7120514,-1.9194641,1
704,8.880585,1.7048645,-1.9865112,1
705,8.861435,1.7359924,-1.9015045,1
706,8.897339,1.7599334999999998,-1.8344726999999998,1
707,8.879379,1.7802734,-1.7554626,1
708,8.84227,1.7515564,-1.7315216,1
709,8.888962,1.714447,-1.7063903999999999,1
710,8.893753,1.7216186999999998,-1.7075806,1
711,8.88298,1.651001,-1.7171631,1
712,8.887772,1.619873,-1.6836395,1
713,8.926071,1.5875549,-1.6968078999999998,1
714,8.947617,1.5456543,-1.6932220000000002,1
715,8.952408,1.5516357,-1.7183533,1
716,8.964386,1.556427,-1.6968078999999998,1
717,8.946425999999999,1.5540314,-1.7123718,1
718,8.942825,1.5360718,-1.7518768,1
719,8.915298,1.5528258999999998,-1.6896209999999998,1
720,8.966782,1.5648041000000001,-1.6824341,1
721,8.918884,1.600708,-1.6668854,1
722,8.912903,1.5659943,-1.6357574,1
723,8.926071,1.5360718,-1.6297760000000001,1
724,8.973953,1.5947266000000002,-1.6992035,1
725,8.916504,1.5983276000000002,-1.7231445,1
726,8.930862,1.5827636999999999,-1.6573029,1
727,8.951217999999999,1.5420532,-1.6166076999999999,1
728,8.967972,1.5588226,-1.6273803999999998,1
729,8.930862,1.5983276000000002,-1.6177979,1
730,8.906921,1.651001,-1.5962524,1
731,8.891357000000001,1.6689453,-1.610611,1
732,8.862625,1.6605682000000002,-1.614212,1
733,8.915298,1.6462096999999998,-1.5782928,1
734,8.953613,1.6318358999999998,-1.6213837,1
735,8.965575999999999,1.6258545,-1.610611,1
736,8.947617,1.616272,-1.6201934999999998,1
737,8.909317,1.6318358999999998,-1.6189879999999999,1
738,8.894943,1.6210632,-1.6034393,1
739,8.898544000000001,1.6282501,-1.6453247,1
740,8.950012,1.5923308999999999,-1.6513214,1
741,8.924881,1.6091003000000001,-1.6704712,1
742,8.945221,1.5863495,-1.6429291000000001,1
743,8.935654,1.5851593000000002,-1.6860351999999998,1
744,8.923675999999999,1.5887451000000001,-1.6537169999999999,1
745,8.971558,1.571991,-1.6668854,1
746,8.941635,1.6126862,-1.6596985,1
747,8.941635,1.6246643,-1.6620941000000002,1
748,8.934448,1.600708,-1.6560974,1
749,8.940445,1.5755768,-1.6644897,1
750,8.941635,1.6067046999999999,-1.658493,1
751,8.947617,1.6067046999999999,-1.634552,1
752,8.899734500000001,1.6078948999999998,-1.5938568000000002,1
753,8.927277,1.616272,-1.6022339,1
754,8.939239500000001,1.5995177999999999,-1.5890656,1
755,8.939239500000001,1.6210632,-1.614212,1
756,8.873398,1.6067046999999999,-1.579483,1
757,8.977554,1.5863495,-1.6046295,1
758,8.988327,1.6533813000000002,-1.6812439,1
759,8.905716,1.6677551,-1.6968078999999998,1
760,8.936844,1.6043091,-1.6417389,1
761,8.953613,1.5276947,-1.6429291000000001,1
762,8.983536,1.5408629999999999,-1.6704712,1
763,8.926071,1.635437,-1.6465302,1
764,8.908112,1.6342316000000001,-1.6082153000000001,1
765,8.881775,1.600708,-1.5974426000000002,1
766,8.903336,1.5839538999999998,-1.6094208,1
767,8.958389,1.5540314,-1.6333618,1
768,9.012267999999999,1.5600128,-1.6333618,1
769,9.019455,1.5659943,-1.6620941000000002,1
770,8.950012,1.5947266000000002,-1.6309662,1
771,8.905716,1.576767,-1.6237793,1
772,8.888962,1.5384673999999998,-1.6249847,1
773,8.939239500000001,1.5875549,-1.6309662,1
774,8.940445,1.6294403,-1.6297760000000001,1
775,8.952408,1.6521912,-1.6189879999999999,1
776,8.940445,1.6091003000000001,-1.6249847,1
777,8.955994,1.6078948999999998,-1.5998383,1
778,8.923675999999999,1.6258545,-1.574707,1
779,8.906921,1.6486053,-1.6321564,1
780,8.934448,1.6426086,-1.5878754,1
781,8.957199000000001,1.6114959999999998,-1.5842743000000001,1
782,8.930862,1.6091003000000001,-1.6249847,1
783,8.938049000000001,1.5743866000000002,-1.6261749,1
784,8.939239500000001,1.5815582000000001,-1.6381531,1
785,8.960785000000001,1.6282501,-1.634552,1
786,8.934448,1.6234589,-1.6381531,1
787,8.936844,1.6126862,-1.6154022,1
788,8.964386,1.5923308999999999,-1.5950469999999999,1
789,8.960785000000001,1.5755768,-1.6357574,1
790,8.92128,1.580368,-1.6058197,1
791,8.892548,1.5600128,-1.5854796999999998,1
792,8.971558,1.5971222,-1.6189879999999999,1
793,8.930862,1.6701508000000003,-1.7207488999999998,1
794,8.909317,1.635437,-1.6189879999999999,1
795,8.939239500000001,1.5588226,-1.6189879999999999,1
796,8.975159,1.5097351,-1.6046295,1
797,8.933258,1.600708,-1.5986481000000001,1
798,8.941635,1.6378326,-1.5687103,1
799,8.873398,1.674942,-1.5543518,1
800,8.881775,1.6258545,-1.5771027,1
801,8.896149000000001,1.6210632,-1.5962524,1
802,8.955994,1.6031036,-1.5926513999999998,1
803,8.975159,1.6174773999999998,-1.6333618,1
804,8.938049000000001,1.6258545,-1.6513214,1
805,8.909317,1.6150818,-1.6249847,1
806,8.90213,1.6019135,-1.5806885,1
807,8.933258,1.5923308999999999,-1.610611,1
808,8.951217999999999,1.6102905,-1.5998383,1
809,8.972763,1.5923308999999999,-1.550766,1
810,8.942825,1.5995177999999999,-1.5998383,1
811,8.934448,1.600708,-1.5866699,1
812,8.950012,1.5755768,-1.5998383,1
813,8.958389,1.5659943,-1.5854796999999998,1
814,8.955994,1.576767,-1.5675201,1
815,8.946425999999999,1.5755768,-1.5567474,1
816,8.945221,1.5612183000000002,-1.6285706,1
817,8.946425999999999,1.5624083999999998,-1.5998383,1
818,8.935654,1.5635986000000002,-1.5866699,1
819,8.971558,1.5779724,-1.6034393,1
820,8.928467,1.5707855,-1.6237793,1
821,8.950012,1.6091003000000001,-1.5842743000000001,1
822,8.972763,1.5875549,-1.5854796999999998,1
823,8.970367,1.5983276000000002,-1.6201934999999998,1
824,8.896149000000001,1.580368,-1.5758972,1
825,8.945221,1.5791626,-1.5735016000000002,1
826,8.977554,1.5899353,-1.5818787,1
827,8.966782,1.6473999,-1.6992035,1
828,8.914108,1.5983276000000002,-1.6225891000000001,1
829,8.963181,1.5384673999999998,-1.5890656,1
830,8.963181,1.5384673999999998,-1.6130066,1
831,8.952408,1.5552216,-1.5854796999999998,1
832,8.915298,1.6426086,-1.590271,1
833,8.873398,1.6497955000000002,-1.526825,1
834,8.908112,1.6473999,-1.5639343,1
835,8.924881,1.5863495,-1.5866699,1
836,8.958389,1.5947266000000002,-1.5806885,1
837,8.993117999999999,1.5576172,-1.6237793,1
838,8.977554,1.5779724,-1.6010437,1
839,8.929672,1.5863495,-1.579483,1
840,8.897339,1.5612183000000002,-1.5878754,1
841,8.952408,1.5743866000000002,-1.5758972,1
842,8.933258,1.5995177999999999,-1.6082153000000001,1
843,8.958389,1.5863495,-1.590271,1
844,8.977554,1.5839538999999998,-1.574707,1
845,8.948822,1.5671997,-1.5950469999999999,1
846,8.945221,1.5707855,-1.5543518,1
847,8.965575999999999,1.5683899,-1.5627289,1
848,8.946425999999999,1.6031036,-1.5735016000000002,1
849,8.932053,1.5815582000000001,-1.5723114,1
850,8.927277,1.6114959999999998,-1.550766,1
851,8.951217999999999,1.5612183000000002,-1.5938568000000002,1
852,8.96199,1.6114959999999998,-1.6010437,1
853,8.984726,1.6318358999999998,-1.6010437,1
854,8.932053,1.5648041000000001,-1.6441345,1
855,8.910507,1.600708,-1.5591431,1
856,8.936844,1.6054993,-1.574707,1
857,8.977554,1.5995177999999999,-1.5758972,1
858,8.964386,1.5995177999999999,-1.5866699,1
859,8.92009,1.5875549,-1.5208282,1
860,8.960785000000001,1.6067046999999999,-1.5304108,1
861,8.952408,1.6462096999999998,-1.6441345,1
862,8.922485,1.619873,-1.6225891000000001,1
863,8.927277,1.5540314,-1.579483,1
864,8.967972,1.5097351,-1.5771027,1
865,8.985930999999999,1.5600128,-1.5938568000000002,1
866,8.951217999999999,1.655777,-1.550766,1
867,8.903336,1.671341,-1.5184326000000001,1
868,8.865021,1.6545868000000001,-1.516037,1
869,8.933258,1.6031036,-1.5519562,1
870,8.965575999999999,1.6019135,-1.5735016000000002,1
871,8.995499,1.600708,-1.5579376,1
872,8.977554,1.5935363999999999,-1.5519562,1
873,8.945221,1.6210632,-1.5411834999999998,1
874,8.914108,1.5839538999999998,-1.511261,1
875,8.923675999999999,1.5911407,-1.5328064,1
876,8.951217999999999,1.616272,-1.5375976999999998,1
877,8.948822,1.6378326,-1.555542,1
878,8.957199000000001,1.6294403,-1.5363921999999999,1
879,8.928467,1.5755768,-1.5651245,1
880,8.964386,1.5540314,-1.5651245,1
881,8.941635,1.5827636999999999,-1.5579376,1
882,8.942825,1.5827636999999999,-1.5639343,1
883,8.951217999999999,1.6114959999999998,-1.5615386999999998,1
884,8.939239500000001,1.600708,-1.5220337,1
885,8.944030999999999,1.5683899,-1.5567474,1
886,8.963181,1.5887451000000001,-1.550766,1
887,8.975159,1.5839538999999998,-1.5519562,1
888,8.959595,1.6222687,-1.579483,1
889,8.939239500000001,1.5947266000000002,-1.5483704,1
890,8.928467,1.5899353,-1.5076599,1
891,8.966782,1.5839538999999998,-1.5519562,1
892,8.953613,1.5935363999999999,-1.5256195,1
893,8.938049000000001,1.5815582000000001,-1.511261,1
894,8.970367,1.5779724,-1.526825,1
895,8.976349,1.6282501,-1.5938568000000002,1
896,8.922485,1.6366272,-1.5723114,1
897,8.92009,1.556427,-1.5076599,1
898,8.960785000000001,1.4857941000000001,-1.5615386999999998,1
899,8.969161999999999,1.5264893,-1.5854796999999998,1
900,8.939239500000001,1.635437,-1.5675201,1
901,8.929672,1.6318358999999998,-1.4669647,1
902,8.898544000000001,1.6497955000000002,-1.4992828,1
903,8.969161999999999,1.6019135,-1.4944916000000001,1
904,8.987122,1.571991,-1.5806885,1
905,8.988327,1.5540314,-1.5926513999999998,1
906,8.983536,1.5624083999999998,-1.5411834999999998,1
907,8.966782,1.5995177999999999,-1.5579376,1
908,8.927277,1.6019135,-1.5244293,1
909,8.917694000000001,1.5839538999999998,-1.516037,1
910,8.929672,1.5528258999999998,-1.526825,1
911,8.983536,1.5899353,-1.5208282,1
912,8.970367,1.5600128,-1.5040741000000002,1
913,8.972763,1.5683899,-1.5292052999999999,1
914,8.957199000000001,1.5456543,-1.5328064,1
915,8.96199,1.5408629999999999,-1.48732,1
916,8.948822,1.5695953,-1.5124511999999999,1
917,8.930862,1.5504303,-1.4968872,1
918,8.948822,1.5899353,-1.5375976999999998,1
919,8.982330000000001,1.5312805,-1.531601,1
920,8.976349,1.5576172,-1.555542,1
921,8.977554,1.5648041000000001,-1.5495605,1
922,8.959595,1.5887451000000001,-1.5184326000000001,1
923,8.939239500000001,1.6246643,-1.5375976999999998,1
924,8.945221,1.5851593000000002,-1.5280151000000002,1
925,8.977554,1.5899353,-1.5435791,1
926,8.958389,1.5648041000000001,-1.5232238999999999,1
927,8.938049000000001,1.5815582000000001,-1.4789276000000002,1
928,8.975159,1.5875549,-1.4861145,1
929,9.011063,1.679718,-1.614212,1
930,9.048172000000001,1.635437,-1.6333618,1
931,8.941635,1.576767,-1.6537169999999999,1
932,9.046982,1.422348,-1.6333618,1
933,8.988327,1.4343261999999999,-1.5423737,1
934,8.96199,1.5336761,-1.3783722,1
935,8.90213,1.6258545,-1.3185272,1
936,8.914108,1.6450043,-1.3460541000000001,1
937,8.930862,1.5971222,-1.4358368000000001,1
938,8.952408,1.5887451000000001,-1.4466094999999999,1
939,9.011063,1.5659943,-1.4310455,1
940,9.0182495,1.5588226,-1.4334412,1
941,9.012267999999999,1.5659943,-1.4130858999999998,1
942,8.969161999999999,1.5983276000000002,-1.3484497,1
943,8.959595,1.5624083999999998,-1.3867645,1
944,8.958389,1.556427,-1.3999176000000002,1
945,8.967972,1.5755768,-1.4178772,1
946,8.924881,1.595932,-1.3999176000000002,1
947,8.952408,1.5863495,-1.4118958000000001,1
948,8.984726,1.5635986000000002,-1.447815,1
949,8.989517,1.5612183000000002,-1.4609833,1
950,8.971558,1.5588226,-1.4418182,1
951,8.967972,1.5683899,-1.4597778000000001,1
952,8.973953,1.6067046999999999,-1.4035187,1
953,8.945221,1.600708,-1.4645691,1
954,8.950012,1.5588226,-1.4238739,1
955,8.977554,1.5528258999999998,-1.4490051000000002,1
956,8.994308,1.595932,-1.440628,1
957,8.972763,1.5695953,-1.416687,1
958,8.957199000000001,1.571991,-1.401123,1
959,9.012267999999999,1.5755768,-1.4035187,1
960,8.958389,1.5552216,-1.4514008,1
961,8.927277,1.5504303,-1.3867645,1
962,9.013458,1.616272,-1.4274597,1
963,9.001495,1.6282501,-1.4777374,1
964,8.932053,1.6150818,-1.4729462,1
965,8.969161999999999,1.5528258999999998,-1.4573822,1
966,8.977554,1.5181122,-1.4430237,1
967,9.001495,1.5408629999999999,-1.4083099,1
968,8.977554,1.6102905,-1.4142914,1
969,8.940445,1.6282501,-1.3855591,1
970,8.945221,1.6390228,-1.4490051000000002,1
971,8.950012,1.5911407,-1.4382324,1
972,8.990723,1.5540314,-1.4442138999999998,1
973,9.014664,1.5743866000000002,-1.4190826,1
974,9.017059,1.5648041000000001,-1.4490051000000002,1
975,9.00029,1.5396576000000002,-1.4334412,1
976,8.945221,1.5588226,-1.4238739,1
977,8.945221,1.5384673999999998,-1.3891448999999998,1
978,8.996704,1.556427,-1.4262542999999999,1
979,9.001495,1.5707855,-1.4071045,1
980,8.994308,1.580368,-1.4107056,1
981,8.984726,1.5815582000000001,-1.4059143,1
982,8.977554,1.5468445,-1.3903503000000001,1
983,8.975159,1.5612183000000002,-1.4107056,1
984,8.977554,1.5612183000000002,-1.3963318,1
985,8.978744500000001,1.580368,-1.401123,1
986,8.966782,1.5659943,-1.4118958000000001,1
987,8.972763,1.5875549,-1.3628082000000001,1
988,8.971558,1.580368,-1.3807677999999999,1
989,8.996704,1.580368,-1.4442138999999998,1
990,8.994308,1.5887451000000001,-1.4214783000000002,1
991,8.952408,1.5659943,-1.3975372,1
992,8.975159,1.5731812,-1.3783722,1
993,9.001495,1.5612183000000002,-1.4130858999999998,1
994,8.985930999999999,1.5600128,-1.4202728,1
995,8.969161999999999,1.5600128,-1.3723907,1
996,9.038605,1.595932,-1.3891448999999998,1
997,9.008666999999999,1.6378326,-1.5064697,1
998,8.916504,1.5911407,-1.4250641000000002,1
999,8.958389,1.5205078,-1.3831635,1
1000,8.975159,1.4893798999999999,-1.3723907,1
1001,8.995499,1.5540314,-1.3712006,1
1002,8.975159,1.6031036,-1.3939362,1
1003,8.934448,1.595932,-1.3280945,1
1004,8.954803,1.5887451000000001,-1.3795776000000002,1
1005,8.953613,1.5911407,-1.4130858999999998,1
1006,8.988327,1.5648041000000001,-1.4262542999999999,1
1007,9.030228,1.5755768,-1.4454193000000002,1
1008,9.019455,1.5624083999999998,-1.4394226,1
1009,8.97995,1.5683899,-1.4226685,1
1010,8.955994,1.5468445,-1.4047089,1
1011,8.938049000000001,1.5755768,-1.3903503000000001,1
1012,8.987122,1.5193176000000002,-1.4035187,1
1013,8.990723,1.5480499,-1.4071045,1
1014,9.001495,1.5444489,-1.4047089,1
1015,8.940445,1.5731812,-1.4059143,1
1016,8.959595,1.595932,-1.3963318,1
1017,8.982330000000001,1.5731812,-1.3867645,1
1018,8.958389,1.5528258999999998,-1.4310455,1
1019,8.988327,1.5815582000000001,-1.4549866000000002,1
1020,8.969161999999999,1.5791626,-1.4502106000000001,1
1021,8.954803,1.5875549,-1.4059143,1
1022,8.972763,1.576767,-1.4298553,1
1023,8.978744500000001,1.5791626,-1.4382324,1
1024,8.98114,1.5755768,-1.4358368000000001,1
1025,8.948822,1.5863495,-1.4310455,1
1026,8.959595,1.5743866000000002,-1.4418182,1
1027,8.993117999999999,1.5396576000000002,-1.4382324,1
1028,8.985930999999999,1.5528258999999998,-1.4813232,1
1029,8.938049000000001,1.5683899,-1.4490051000000002,1
1030,8.997894,1.5408629999999999,-1.4514008,1
1031,8.9991,1.616272,-1.5208282,1
1032,8.933258,1.5779724,-1.5423737,1
1033,8.964386,1.5540314,-1.4849243,1
1034,8.990723,1.5312805,-1.4645691,1
1035,8.994308,1.5588226,-1.4717559999999998,1
1036,8.936844,1.5707855,-1.4849243,1
1037,8.932053,1.6126862,-1.4047089,1
1038,8.940445,1.5827636999999999,-1.4047089,1
1039,8.941635,1.5755768,-1.4466094999999999,1
1040,8.98114,1.5552216,-1.4370421999999998,1
1041,9.008666999999999,1.5659943,-1.4298553,1
1042,9.011063,1.5528258999999998,-1.4729462,1
1043,8.963181,1.5899353,-1.4202728,1
1044,8.942825,1.6043091,-1.4107056,1
1045,8.912903,1.5827636999999999,-1.4047089,1
1046,8.98114,1.5648041000000001,-1.4669647,1
1047,8.964386,1.5384673999999998,-1.3975372,1
1048,8.975159,1.5648041000000001,-1.4083099,1
1049,8.972763,1.5635986000000002,-1.3939362,1
1050,8.984726,1.5420532,-1.3951416,1
1051,9.013458,1.5396576000000002,-1.4130858999999998,1
1052,8.993117999999999,1.595932,-1.3831635,1
1053,8.98114,1.5671997,-1.4250641000000002,1
1054,8.938049000000001,1.5588226,-1.3987273999999998,1
1055,8.975159,1.576767,-1.4202728,1
1056,8.958389,1.5348816,-1.4023132,1
1057,8.952408,1.5600128,-1.401123,1
1058,8.990723,1.5648041000000001,-1.3699951000000001,1
1059,8.973953,1.5444489,-1.3604279,1
1060,8.958389,1.5659943,-1.3867645,1
1061,8.993117999999999,1.580368,-1.3927459999999998,1
1062,8.997894,1.5815582000000001,-1.4202728,1
1063,8.966782,1.5612183000000002,-1.3927459999999998,1
1064,8.954803,1.5444489,-1.3688049,1
1065,9.029022,1.5899353,-1.4813232,1
1066,8.963181,1.5875549,-1.5136566,1
1067,8.964386,1.5588226,-1.3939362,1
1068,8.988327,1.5133208999999999,-1.3915405,1
1069,9.011063,1.556427,-1.3712006,1
1070,9.011063,1.595932,-1.3628082000000001,1
1071,8.967972,1.6258545,-1.3628082000000001,1
1072,8.948822,1.616272,-1.3412628,1
1073,8.930862,1.6126862,-1.3795776000000002,1
1074,8.955994,1.5851593000000002,-1.3712006,1
1075,9.001495,1.5791626,-1.3580322,1
1076,9.046982,1.571991,-1.3795776000000002,1
1077,8.984726,1.5540314,-1.3915405,1
1078,8.939239500000001,1.5456543,-1.3795776000000002,1
1079,8.933258,1.5779724,-1.3352814,1
1080,8.970367,1.5576172,-1.3580322,1
1081,9.008666999999999,1.5528258999999998,-1.3759766000000002,1
1082,8.997894,1.600708,-1.361618,1
1083,8.958389,1.5600128,-1.3855591,1
1084,8.978744500000001,1.5468445,-1.3999176000000002,1
1085,8.988327,1.5576172,-1.3604279,1
1086,8.994308,1.5648041000000001,-1.361618,1
1087,8.952408,1.5635986000000002,-1.3280945,1
1088,9.001495,1.5552216,-1.3640136999999999,1
1089,8.97995,1.5911407,-1.3448639,1
1090,8.973953,1.5695953,-1.3843689,1
1091,8.972763,1.556427,-1.3580322,1
1092,8.988327,1.5779724,-1.3819733,1
1093,9.003891000000001,1.5671997,-1.401123,1
1094,8.944030999999999,1.5659943,-1.4059143,1
1095,8.997894,1.5648041000000001,-1.3759766000000002,1
1096,9.017059,1.5815582000000001,-1.4214783000000002,1
1097,8.958389,1.5815582000000001,-1.4023132,1
1098,8.954803,1.5995177999999999,-1.3795776000000002,1
1099,9.024231,1.5695953,-1.3520355,1
1100,9.029022,1.6186676000000002,-1.4681548999999998,1
1101,8.924881,1.5887451000000001,-1.4370421999999998,1
1102,8.975159,1.5360718,-1.3628082000000001,1
1103,8.995499,1.5181122,-1.3795776000000002,1
1104,9.003891000000001,1.5312805,-1.3568268,1
1105,8.970367,1.5887451000000001,-1.3269043,1
1106,8.971558,1.6282501,-1.3628082000000001,1
1107,8.958389,1.6091003000000001,-1.3544312,1
1108,8.953613,1.580368,-1.3424683000000002,1
1109,8.987122,1.5635986000000002,-1.3652038999999998,1
1110,9.003891000000001,1.5288848999999998,-1.3436583999999998,1
1111,9.030228,1.5420532,-1.3903503000000001,1
1112,9.012267999999999,1.5659943,-1.3544312,1
1113,8.98114,1.5372620000000001,-1.3340912,1
1114,8.953613,1.5480499,-1.3688049,1
1115,8.98114,1.5336761,-1.3807677999999999,1
1116,8.997894,1.5217133,-1.3915405,1
1117,8.991913,1.5576172,-1.3951416,1
1118,8.991913,1.5396576000000002,-1.3783722,1
1119,8.989517,1.5528258999999998,-1.3304901000000002,1
1120,9.011063,1.5923308999999999,-1.3316956,1
1121,8.993117999999999,1.5875549,-1.3077545,1
1122,8.967972,1.600708,-1.3089447,1
1123,8.942825,1.5947266000000002,-1.2993622,1
1124,8.959595,1.6078948999999998,-1.337677,1
1125,8.960785000000001,1.5635986000000002,-1.3197173999999998,1
1126,8.982330000000001,1.5779724,-1.3233032,1
1127,8.97995,1.5648041000000001,-1.3269043,1
1128,8.976349,1.5755768,-1.3245087,1
1129,8.98114,1.5995177999999999,-1.337677,1
1130,8.950012,1.5731812,-1.3065491000000002,1
1131,9.001495,1.5588226,-1.3292999,1
1132,9.001495,1.5839538999999998,-1.3604279,1
1133,8.975159,1.5528258999999998,-1.3029633,1
1134,8.966782,1.5396576000000002,-1.2838135,1
1135,9.013458,1.5935363999999999,-1.3436583999999998,1
1136,8.990723,1.6138763,-1.4394226,1
1137,8.952408,1.5648041000000001,-1.3604279,1
1138,8.967972,1.5049438,-1.3125305,1
1139,9.017059,1.5121307,-1.3436583999999998,1
1140,9.007477,1.5360718,-1.3640136999999999,1
1141,8.994308,1.5851593000000002,-1.3053589,1
1142,8.933258,1.5743866000000002,-1.3245087,1
1143,8.948822,1.5887451000000001,-1.3280945,1
1144,8.960785000000001,1.5468445,-1.3544312,1
1145,8.982330000000001,1.5504303,-1.3304901000000002,1
1146,9.030228,1.5492401000000002,-1.3484497,1
1147,9.001495,1.5671997,-1.3508453,1
1148,8.983536,1.5839538999999998,-1.3520355,1
1149,8.947617,1.580368,-1.3364716,1
1150,8.965575999999999,1.571991,-1.2969818000000002,1
1151,8.993117999999999,1.576767,-1.3460541000000001,1
1152,9.009872,1.5887451000000001,-1.3125305,1
1153,8.969161999999999,1.5755768,-1.3903503000000001,1
1154,8.989517,1.6078948999999998,-1.3688049,1
1155,8.976349,1.5552216,-1.3328857,1
1156,9.006287,1.5360718,-1.3472594999999998,1
1157,8.985930999999999,1.5468445,-1.3125305,1
1158,8.991913,1.5372620000000001,-1.3316956,1
1159,8.982330000000001,1.5659943,-1.3292999,1
1160,8.984726,1.5468445,-1.3292999,1
1161,8.996704,1.580368,-1.3113403000000001,1
1162,8.994308,1.5552216,-1.3652038999999998,1
1163,8.988327,1.5755768,-1.353241,1
1164,9.014664,1.5456543,-1.361618,1
1165,8.972763,1.5695953,-1.3795776000000002,1
1166,8.946425999999999,1.5420532,-1.3280945,1
1167,8.993117999999999,1.5528258999999998,-1.3089447,1
1168,9.002686,1.5671997,-1.3867645,1
1169,8.996704,1.5432587,-1.401123,1
1170,8.945221,1.5408629999999999,-1.353241,1
1171,9.013458,1.5695953,-1.2766266000000002,1
1172,9.032608,1.5755768,-1.4214783000000002,1
1173,8.969161999999999,1.5492401000000002,-1.4394226,1
1174,9.045776,1.532486,-1.3029633,1
1175,8.990723,1.5276947,-1.3747863999999999,1
1176,9.0182495,1.5791626,-1.3855591,1
1177,9.021835000000001,1.5516357,-1.3759766000000002,1
1178,8.958389,1.5707855,-1.3819733,1
1179,8.983536,1.5779724,-1.4047089,1
1180,8.972763,1.5588226,-1.4298553,1
1181,8.973953,1.5707855,-1.4083099,1
1182,8.982330000000001,1.5264893,-1.4047089,1
1183,9.027832,1.5588226,-1.4358368000000001,1
1184,8.971558,1.5528258999999998,-1.4095001,1
1185,8.955994,1.5276947,-1.4107056,1
1186,8.960785000000001,1.5659943,-1.3759766000000002,1
1187,8.959595,1.5336761,-1.3999176000000002,1
1188,8.964386,1.5528258999999998,-1.416687,1
1189,9.011063,1.5612183000000002,-1.3939362,1
1190,8.970367,1.5312805,-1.452591,1
1191,8.975159,1.5468445,-1.4310455,1
1192,8.984726,1.5683899,-1.3867645,1
1193,8.955994,1.5444489,-1.4154816000000001,1
1194,8.973953,1.5671997,-1.4430237,1
1195,8.98114,1.5648041000000001,-1.456192,1
1196,8.97995,1.571991,-1.4358368000000001,1
1197,8.96199,1.5456543,-1.4310455,1
1198,8.97995,1.5552216,-1.452591,1
1199,8.977554,1.5408629999999999,-1.4346466,1
1200,8.977554,1.5360718,-1.4382324,1
1201,8.950012,1.5145263999999998,-1.3903503000000001,1
1202,9.023041000000001,1.5276947,-1.3388672,1
1203,9.001495,1.5360718,-1.4274597,1
1204,8.947617,1.5432587,-1.3747863999999999,1
1205,8.969161999999999,1.5576172,-1.3484497,1
1206,9.023041000000001,1.5743866000000002,-1.3939362,1
1207,9.0182495,1.5576172,-1.5040741000000002,1
1208,8.997894,1.5935363999999999,-1.4537964,1
1209,8.960785000000001,1.5456543,-1.3795776000000002,1
1210,8.976349,1.5300903000000001,-1.3484497,1
1211,8.989517,1.5468445,-1.3304901000000002,1
1212,8.983536,1.5983276000000002,-1.3280945,1
1213,8.952408,1.5791626,-1.3580322,1
1214,8.969161999999999,1.5791626,-1.3388672,1
1215,8.982330000000001,1.5827636999999999,-1.3855591,1
1216,8.976349,1.5624083999999998,-1.3448639,1
1217,8.995499,1.5648041000000001,-1.3149261,1
1218,9.021835000000001,1.5516357,-1.3245087,1
1219,8.994308,1.5252991000000002,-1.3256989,1
1220,8.955994,1.5648041000000001,-1.3256989,1
1221,8.954803,1.556427,-1.2981719999999999,1
1222,8.993117999999999,1.5707855,-1.3089447,1
1223,8.9991,1.556427,-1.3053589,1
1224,9.003891000000001,1.5468445,-1.2562714,1
1225,9.049377,1.5300903000000001,-1.2933807,1
1226,9.054169,1.5348816,-1.4071045,1
1227,9.015854,1.5336761,-1.377182,1
1228,9.033813,1.5624083999999998,-1.3712006,1
1229,8.990723,1.5336761,-1.3209229,1
1230,8.917694000000001,1.5276947,-1.2263488999999999,1
1231,8.934448,1.5205078,-1.2143707000000001,1
1232,8.939239500000001,1.5348816,-1.2227478,1
1233,8.990723,1.5588226,-1.2514801000000002,1
1234,9.036209,1.5372620000000001,-1.2754211000000002,1
1235,9.046982,1.5384673999999998,-1.2682495,1
1236,9.002686,1.5612183000000002,-1.2550812,1
1237,8.990723,1.5648041000000001,-1.2215576000000001,1
1238,8.960785000000001,1.5624083999999998,-1.2311401000000002,1
1239,8.970367,1.5408629999999999,-1.2670441000000001,1
1240,8.951217999999999,1.5336761,-1.1916351,1
1241,8.9991,1.5456543,-1.1593018,1
1242,9.030228,1.5983276000000002,-1.2718353,1
1243,8.988327,1.5528258999999998,-1.3125305,1
1244,9.021835000000001,1.5121307,-1.2682495,1
1245,8.989517,1.4977722,-1.2323302999999999,1
1246,9.026627000000001,1.5049438,-1.2514801000000002,1
1247,8.994308,1.5492401000000002,-1.2024078,1
1248,8.973953,1.5755768,-1.2012024,1
1249,8.947617,1.580368,-1.1844482,1
1250,8.989517,1.5635986000000002,-1.2024078,1
1251,8.985930999999999,1.5288848999999998,-1.2059937,1
1252,9.051772999999999,1.5097351,-1.2071991000000002,1
1253,9.039795,1.5217133,-1.2095795,1
1254,9.033813,1.5576172,-1.2131805,1
1255,8.994308,1.5468445,-1.1844482,1
1256,8.989517,1.5492401000000002,-1.2071991000000002,1
1257,9.002686,1.5157166000000002,-1.1844482,1
1258,9.003891000000001,1.5276947,-1.2275391000000002,1
1259,9.037399,1.5348816,-1.2083893,1
1260,9.024231,1.5073395,-1.188034,1
1261,8.983536,1.5492401000000002,-1.1844482,1
1262,9.014664,1.5420532,-1.1928253,1
1263,8.984726,1.5396576000000002,-1.1892395,1
1264,8.991913,1.5624083999999998,-1.1904297,1
1265,9.008666999999999,1.5408629999999999,-1.2454987,1
1266,8.982330000000001,1.5312805,-1.2227478,1
1267,8.994308,1.5061493000000001,-1.2443084999999998,1
1268,9.003891000000001,1.5360718,-1.2083893,1
1269,9.025436000000001,1.5288848999999998,-1.2012024,1
1270,9.033813,1.5300903000000001,-1.2562714,1
1271,9.035003999999999,1.5588226,-1.2466888,1
1272,9.011063,1.5360718,-1.2119751,1
1273,8.987122,1.5755768,-1.143753,1
1274,9.058945,1.5420532,-1.2012024,1
1275,8.995499,1.5193176000000002,-1.1916351,1
1276,8.960785000000001,1.5360718,-1.1485290000000001,1
1277,9.044586,1.5336761,-1.1605072,1
1278,9.096069,1.5576172,-1.2754211000000002,1
1279,8.996704,1.5336761,-1.2598572000000001,1
1280,9.027832,1.5109406,-1.1844482,1
1281,9.043396000000001,1.4822083000000001,-1.1377563,1
1282,9.027832,1.5001526,-1.1533203,1
1283,8.978744500000001,1.5911407,-1.1808624,1
1284,8.950012,1.5923308999999999,-1.1377563,1
1285,8.970367,1.5480499,-1.1509247,1
1286,9.014664,1.5288848999999998,-1.1808624,1
1287,9.030228,1.5432587,-1.2299347,1
1288,9.041,1.5145263999999998,-1.1449432,1
1289,9.024231,1.5492401000000002,-1.1724701000000002,1
1290,9.002686,1.5444489,-1.1952209999999999,1
1291,9.011063,1.5121307,-1.1593018,1
1292,8.983536,1.5205078,-1.1593018,1
1293,9.014664,1.5073395,-1.1712798999999998,1
1294,9.044586,1.5109406,-1.1676941,1
1295,9.002686,1.5240936,-1.1581116000000002,1
1296,9.011063,1.5193176000000002,-1.1365662,1
1297,9.013458,1.5049438,-1.1485290000000001,1
1298,9.038605,1.5336761,-1.1581116000000002,1
1299,9.019455,1.5037537,-1.155716,1
1300,8.991913,1.5312805,-1.1461333999999999,1
1301,9.007477,1.5264893,-1.1904297,1
1302,8.997894,1.5372620000000001,-1.143753,1
1303,9.009872,1.5181122,-1.2012024,1
1304,8.987122,1.5145263999999998,-1.1736754999999999,1
1305,9.001495,1.5097351,-1.1533203,1
1306,9.062546000000001,1.5252991000000002,-1.140152,1
1307,9.011063,1.5205078,-1.1868439,1
1308,8.970367,1.5480499,-1.1377563,1
1309,8.982330000000001,1.576767,-1.1365662,1
1310,9.048172000000001,1.5312805,-1.1844482,1
1311,9.019455,1.5336761,-1.2048035,1
1312,8.985930999999999,1.5193176000000002,-1.1210022,1
1313,8.987122,1.501358,-1.1186066000000001,1
1314,9.042191,1.5695953,-1.2179718000000002,1
1315,9.027832,1.5504303,-1.3077545,1
1316,9.031417999999999,1.5121307,-1.2263488999999999,1
1317,9.021835000000001,1.492981,-1.1521301000000002,1
1318,9.001495,1.5360718,-1.1473388999999998,1
1319,8.996704,1.5648041000000001,-1.1365662,1
1320,8.951217999999999,1.5468445,-1.1664886,1
1321,8.955994,1.5588226,-1.1736754999999999,1
1322,9.007477,1.5193176000000002,-1.2048035,1
1323,9.044586,1.5348816,-1.2562714,1
1324,9.046982,1.5240936,-1.2622528,1
1325,9.019455,1.5025482,-1.1916351,1
1326,9.014664,1.5348816,-1.2634583000000001,1
1327,8.994308,1.4977722,-1.2574768,1
1328,8.989517,1.5133208999999999,-1.2119751,1
1329,8.987122,1.5145263999999998,-1.274231,1
1330,8.983536,1.5205078,-1.2694397,1
1331,9.015854,1.5181122,-1.2670441000000001,1
1332,9.00029,1.5133208999999999,-1.2598572000000001,1
1333,9.012267999999999,1.5169219999999999,-1.2658539,1
1334,9.00029,1.5229034,-1.2694397,1
1335,8.9991,1.5504303,-1.282608,1
1336,8.983536,1.5288848999999998,-1.2873993000000001,1
1337,9.009872,1.5707855,-1.2754211000000002,1
1338,9.019455,1.5492401000000002,-1.3029633,1
1339,8.985930999999999,1.4869843,-1.3328857,1
1340,8.987122,1.5336761,-1.3197173999999998,1
1341,8.987122,1.5264893,-1.3029633,1
1342,9.002686,1.5336761,-1.3149261,1
1343,9.009872,1.5336761,-1.3149261,1
1344,8.98114,1.5121307,-1.3221129999999999,1
1345,9.012267999999999,1.5264893,-1.2969818000000002,1
1346,9.013458,1.5396576000000002,-1.3604279,1
1347,8.990723,1.5420532,-1.3831635,1
1348,8.939239500000001,1.5181122,-1.3388672,1
1349,8.982330000000001,1.4833983999999998,-1.3316956,1
1350,9.0577545,1.5791626,-1.3855591,1
1351,9.012267999999999,1.5480499,-1.4466094999999999,1
1352,8.996704,1.5300903000000001,-1.3939362,1
1353,9.023041000000001,1.4558716,-1.313736,1
1354,8.996704,1.5229034,-1.2838135,1
1355,8.987122,1.5372620000000001,-1.2969818000000002,1
1356,8.948822,1.5779724,-1.2419128000000001,1
1357,8.930862,1.5815582000000001,-1.2502898999999998,1
1358,8.967972,1.5420532,-1.2730255,1
1359,9.007477,1.5528258999999998,-1.3221129999999999,1
1360,9.043396000000001,1.5240936,-1.2718353,1
1361,9.013458,1.5217133,-1.234726,1
1362,9.029022,1.501358,-1.2754211000000002,1
1363,9.014664,1.580368,-1.2574768,1
1364,8.993117999999999,1.5528258999999998,-1.2622528,1
1365,8.987122,1.532486,-1.2730255,1
1366,8.978744500000001,1.5288848999999998,-1.2490845,1
1367,9.0182495,1.5504303,-1.2885895,1
1368,9.025436000000001,1.5252991000000002,-1.2526855,1
1369,8.989517,1.5707855,-1.2419128000000001,1
1370,8.993117999999999,1.5815582000000001,-1.2287445,1
1371,8.966782,1.5348816,-1.2634583000000001,1
1372,9.00029,1.5360718,-1.2694397,1
1373,9.001495,1.5540314,-1.2454987,1
1374,8.97995,1.5432587,-1.2646483999999998,1
1375,8.993117999999999,1.5779724,-1.2490845,1
1376,9.011063,1.5492401000000002,-1.2682495,1
1377,9.012267999999999,1.5600128,-1.188034,1
1378,9.009872,1.5384673999999998,-1.1976166000000001,1
1379,8.993117999999999,1.5624083999999998,-1.2323302999999999,1
1380,8.991913,1.5288848999999998,-1.2251433999999999,1
1381,8.994308,1.5276947,-1.2119751,1
1382,9.020645,1.5205078,-1.2143707000000001,1
1383,9.0182495,1.5420532,-1.2395171999999999,1
1384,8.971558,1.5312805,-1.1688843,1
1385,9.013458,1.5300903000000001,-1.1808624,1
1386,9.058945,1.556427,-1.2802124,1
1387,8.990723,1.5252991000000002,-1.3053589,1
1388,8.977554,1.5300903000000001,-1.2562714,1
1389,9.030228,1.4977722,-1.2490845,1
1390,9.026627000000001,1.4977722,-1.2227478,1
1391,9.013458,1.5312805,-1.1485290000000001,1
1392,8.995499,1.5875549,-1.1940308000000002,1
1393,8.954803,1.5683899,-1.2048035,1
1394,8.977554,1.5600128,-1.179657,1
1395,9.029022,1.5851593000000002,-1.1952209999999999,1
1396,9.044586,1.556427,-1.2012024,1
1397,9.003891000000001,1.5025482,-1.1748657,1
1398,9.006287,1.5504303,-1.2203674,1
1399,9.029022,1.4893798999999999,-1.1964111000000002,1
1400,8.976349,1.5252991000000002,-1.1892395,1
1401,8.978744500000001,1.5743866000000002,-1.1688843,1
1402,9.019455,1.5492401000000002,-1.1856383999999998,1
1403,9.045776,1.5576172,-1.1844482,1
1404,9.026627000000001,1.5205078,-1.1964111000000002,1
1405,9.009872,1.5205078,-1.2407073999999998,1
1406,9.006287,1.5025482,-1.2179718000000002,1
1407,9.008666999999999,1.5252991000000002,-1.1988068,1
1408,8.991913,1.5420532,-1.1916351,1
1409,9.006287,1.5157166000000002,-1.188034,1
1410,9.019455,1.5396576000000002,-1.1748657,1
1411,9.035003999999999,1.5181122,-1.219162,1
1412,9.051772999999999,1.5276947,-1.203598,1
1413,9.042191,1.5037537,-1.1736754999999999,1
1414,9.031417999999999,1.5061493000000001,-1.0970612,1
1415,9.00029,1.5085449,-1.104248,1
1416,9.001495,1.5061493000000001,-1.1281891000000002,1
1417,9.012267999999999,1.5420532,-1.1569061,1
1418,9.041,1.5288848999999998,-1.1353607,1
1419,9.009872,1.5229034,-1.1257935,1
1420,8.994308,1.492981,-1.1269836000000002,1
1421,9.006287,1.5300903000000001,-1.0791016000000002,1
1422,9.030228,1.5635986000000002,-1.1581116000000002,1
1423,9.019455,1.5516357,-1.2215576000000001,1
1424,9.019455,1.5312805,-1.1820526000000002,1
1425,9.044586,1.4594573999999998,-1.1233978,1
1426,9.033813,1.4594573999999998,-1.0934601000000002,1
1427,9.002686,1.5217133,-1.0934601000000002,1
1428,8.991913,1.5516357,-1.0707245,1
1429,8.991913,1.5145263999999998,-1.1102295,1
1430,8.991913,1.5252991000000002,-1.1054382,1
1431,9.026627000000001,1.5145263999999998,-1.124588,1
1432,9.031417999999999,1.5217133,-1.0934601000000002,1
1433,9.044586,1.4786072000000001,-1.064743,1
1434,9.06015,1.492981,-1.085083,1
1435,9.019455,1.5073395,-1.1221923999999999,1
1436,8.995499,1.5276947,-1.0791016000000002,1
1437,9.043396000000001,1.5336761,-1.1138153,1
1438,9.056564,1.5145263999999998,-1.0934601000000002,1
1439,9.019455,1.5229034,-1.0994568,1
1440,8.990723,1.5121307,-1.0515747,1
1441,8.995499,1.5181122,-1.1066284,1
1442,9.006287,1.5312805,-1.0946655,1
1443,9.021835000000001,1.5264893,-1.0802916999999999,1
1444,9.013458,1.5504303,-1.1174164,1
1445,9.015854,1.5276947,-1.0886841,1
1446,9.013458,1.5468445,-1.1054382,1
1447,9.023041000000001,1.5157166000000002,-1.061142,1
1448,9.015854,1.5169219999999999,-1.1174164,1
1449,9.013458,1.5049438,-1.100647,1
1450,9.006287,1.5288848999999998,-1.0635376,1
1451,9.005081,1.5229034,-1.1162108999999998,1
1452,9.023041000000001,1.5432587,-1.1485290000000001,1
1453,9.001495,1.5288848999999998,-1.1365662,1
1454,8.997894,1.4917755,-1.1533203,1
1455,9.017059,1.492981,-1.143753,1
1456,9.046982,1.5264893,-1.1676941,1
1457,9.026627000000001,1.4893798999999999,-1.1257935,1
1458,8.995499,1.5121307,-1.1162108999999998,1
1459,9.054169,1.5384673999999998,-1.1341705,1
1460,9.035003999999999,1.5432587,-1.2371216,1
1461,9.003891000000001,1.5097351,-1.2059937,1
1462,9.027832,1.5049438,-1.1652985,1
1463,9.038605,1.4905853,-1.2227478,1
1464,9.002686,1.5217133,-1.2131805,1
1465,8.976349,1.5408629999999999,-1.203598,1
1466,8.963181,1.5396576000000002,-1.2119751,1
1467,8.9991,1.5288848999999998,-1.2107849,1
1468,9.020645,1.5336761,-1.2143707000000001,1
1469,9.024231,1.5217133,-1.2275391000000002,1
1470,9.045776,1.5420532,-1.1964111000000002,1
1471,9.008666999999999,1.5229034,-1.2610626,1
1472,9.00029,1.5133208999999999,-1.2466888,1
1473,8.96199,1.5169219999999999,-1.2335358,1
1474,9.093674,1.5396576000000002,-1.179657,1
1475,9.008666999999999,1.5121307,-1.2323302999999999,1
1476,9.007477,1.4786072000000001,-1.2550812,1
1477,8.995499,1.5504303,-1.2802124,1
1478,8.982330000000001,1.5229034,-1.2658539,1
1479,9.005081,1.5312805,-1.2550812,1
1480,9.005081,1.5145263999999998,-1.2766266000000002,1
1481,9.021835000000001,1.5193176000000002,-1.2562714,1
1482,8.976349,1.5229034,-1.2909851,1
1483,9.005081,1.5252991000000002,-1.2969818000000002,1
1484,9.00029,1.5432587,-1.3113403000000001,1
1485,8.994308,1.5348816,-1.2993622,1
1486,9.006287,1.4881897,-1.3065491000000002,1
1487,8.993117999999999,1.4869843,-1.3580322,1
1488,8.996704,1.5288848999999998,-1.2838135,1
1489,9.021835000000001,1.4977722,-1.2754211000000002,1
1490,9.023041000000001,1.5073395,-1.2263488999999999,1
1491,9.020645,1.5312805,-1.2658539,1
1492,8.965575999999999,1.532486,-1.2239532,1
1493,9.013458,1.5264893,-1.1988068,1
1494,9.084091,1.5671997,-1.2790222,1
1495,9.027832,1.5480499,-1.3867645,1
1496,8.987122,1.5444489,-1.2838135,1
1497,9.008666999999999,1.5085449,-1.219162,1
1498,8.9991,1.5396576000000002,-1.2095795,1
1499,9.006287,1.5384673999999998,-1.1976166000000001,1
1500,9.030228,1.5432587,-1.1916351,1
1501,8.995499,1.5612183000000002,-1.1892395,1
1502,9.011063,1.5264893,-1.2167663999999998,1
1503,9.035003999999999,1.5097351,-1.2466888,1
1504,9.019455,1.5348816,-1.2239532,1
1505,9.0182495,1.5109406,-1.1760712,1
1506,9.012267999999999,1.5193176000000002,-1.1760712,1
1507,9.014664,1.5229034,-1.1904297,1
1508,8.991913,1.5240936,-1.203598,1
1509,9.006287,1.5037537,-1.1928253,1
1510,9.006287,1.5049438,-1.1748657,1
1511,9.005081,1.5181122,-1.1605072,1
1512,9.012267999999999,1.5252991000000002,-1.1629028000000001,1
1513,9.00029,1.5336761,-1.1593018,1
1514,9.009872,1.5169219999999999,-1.1844482,1
1515,8.996704,1.5073395,-1.1892395,1
1516,9.041,1.5348816,-1.2203674,1
1517,9.021835000000001,1.5540314,-1.1964111000000002,1
1518,9.025436000000001,1.5001526,-1.2143707000000001,1
1519,9.007477,1.5372620000000001,-1.164093,1
1520,8.964386,1.5372620000000001,-1.1569061,1
1521,9.008666999999999,1.5516357,-1.1856383999999998,1
1522,9.021835000000001,1.5121307,-1.1676941,1
1523,9.031417999999999,1.5456543,-1.1760712,1
1524,8.983536,1.5492401000000002,-1.1353607,1
1525,9.013458,1.5336761,-1.1832428,1
1526,9.037399,1.5480499,-1.1784668,1
1527,9.026627000000001,1.5252991000000002,-1.1030426000000002,1
1528,8.972763,1.5396576000000002,-1.0922698999999998,1
1529,9.075714,1.5468445,-1.104248,1
1530,9.050568,1.5887451000000001,-1.2143707000000001,1
1531,9.043396000000001,1.5300903000000001,-1.2419128000000001,1
1532,9.021835000000001,1.5229034,-1.1533203,1
1533,9.013458,1.4989624,-1.1772614,1
1534,9.050568,1.4762115,-1.1461333999999999,1
1535,8.993117999999999,1.5516357,-1.0779113999999999,1
1536,8.96199,1.556427,-1.0587463,1
1537,8.991913,1.492981,-1.1018523999999998,1
1538,9.0182495,1.5049438,-1.1102295,1
1539,9.045776,1.4917755,-1.1377563,1
1540,9.046982,1.4989624,-1.0898743,1
1541,9.015854,1.5432587,-1.0982513,1
1542,9.0182495,1.5420532,-1.1221923999999999,1
1543,8.994308,1.5252991000000002,-1.0934601000000002,1
1544,9.013458,1.4917755,-1.0802916999999999,1
1545,9.039795,1.5181122,-1.1066284,1
1546,9.014664,1.5049438,-1.0419922,1
1547,9.030228,1.5025482,-1.0635376,1
1548,9.015854,1.5145263999999998,-1.0886841,1
1549,9.024231,1.5384673999999998,-1.0910796999999999,1
1550,9.023041000000001,1.5061493000000001,-1.0527649,1
1551,9.037399,1.5217133,-1.1030426000000002,1
1552,9.013458,1.5312805,-1.0779113999999999,1
1553,9.036209,1.5169219999999999,-1.0575562,1
1554,8.994308,1.5193176000000002,-1.0587463,1
1555,8.975159,1.4881897,-1.0982513,1
1556,9.00029,1.5169219999999999,-1.0683288999999998,1
1557,9.045776,1.5264893,-1.0372009,1
1558,9.020645,1.5181122,-1.0252379999999999,1
1559,9.045776,1.5205078,-1.0479736,1
1560,8.997894,1.5229034,-0.9905243,1
1561,9.008666999999999,1.532486,-1.0192413,1
1562,8.97995,1.5288848999999998,-1.0814972,1
1563,8.987122,1.4941711000000002,-1.1257935,1
1564,8.97995,1.4738159,-1.085083,1
1565,9.049377,1.4905853,-1.0982513,1
1566,9.06134,1.5037537,-1.2287445,1
1567,9.025436000000001,1.5145263999999998,-1.2167663999999998,1
1568,9.007477,1.5300903000000001,-1.1365662,1
1569,8.994308,1.5468445,-1.0982513,1
1570,9.002686,1.5121307,-1.1664886,1
1571,8.971558,1.5348816,-1.1748657,1
1572,8.964386,1.600708,-1.1784668,1
1573,8.996704,1.5815582000000001,-1.1868439,1
1574,9.036209,1.5971222,-1.2766266000000002,1
1575,9.041,1.6102905,-1.2909851,1
1576,9.076903999999999,1.5659943,-1.234726,1
1577,9.041,1.5396576000000002,-1.2215576000000001,1
1578,8.991913,1.5492401000000002,-1.1760712,1
1579,8.969161999999999,1.556427,-1.1425476,1
1580,8.977554,1.5552216,-1.1952209999999999,1
1581,8.965575999999999,1.5659943,-1.2287445,1
1582,8.9991,1.5600128,-1.2670441000000001,1
1583,8.9991,1.5432587,-1.2466888,1
1584,9.00029,1.556427,-1.258667,1
1585,9.001495,1.5145263999999998,-1.2718353,1
1586,9.014664,1.532486,-1.2538757,1
1587,9.011063,1.4977722,-1.2371216,1
1588,9.00029,1.5157166000000002,-1.2395171999999999,1
1589,9.009872,1.5360718,-1.2419128000000001,1
1590,8.984726,1.5372620000000001,-1.2538757,1
1591,8.965575999999999,1.5528258999999998,-1.2550812,1
1592,8.990723,1.5516357,-1.2682495,1
1593,9.017059,1.5516357,-1.2335358,1
1594,8.991913,1.5181122,-1.3221129999999999,1
1595,8.971558,1.5408629999999999,-1.3029633,1
1596,9.019455,1.5097351,-1.3340912,1
1597,9.052963,1.5025482,-1.3197173999999998,1
1598,9.017059,1.5085449,-1.3149261,1
1599,8.955994,1.5384673999999998,-1.2634583000000001,1
1600,9.00029,1.5492401000000002,-1.2287445,1
1601,9.054169,1.5528258999999998,-1.2802124,1
1602,8.975159,1.5408629999999999,-1.3723907,1
1603,8.990723,1.5492401000000002,-1.313736,1
1604,8.993117999999999,1.5145263999999998,-1.3017578,1
1605,8.9991,1.5181122,-1.2969818000000002,1
1606,9.014664,1.5360718,-1.282608,1
1607,9.001495,1.5504303,-1.2730255,1
1608,8.990723,1.5731812,-1.3065491000000002,1
1609,8.993117999999999,1.5779724,-1.2814178,1
1610,9.025436000000001,1.5755768,-1.3125305,1
1611,8.991913,1.5480499,-1.2371216,1
1612,8.9991,1.5480499,-1.2119751,1
1613,9.008666999999999,1.5360718,-1.2107849,1
1614,8.993117999999999,1.5300903000000001,-1.2419128000000001,1
1615,8.985930999999999,1.5707855,-1.2024078,1
1616,8.9991,1.5264893,-1.234726,1
1617,9.015854,1.5384673999999998,-1.2622528,1
1618,9.020645,1.5169219999999999,-1.2215576000000001,1
1619,8.9991,1.5121307,-1.2059937,1
1620,9.012267999999999,1.5264893,-1.1844482,1
1621,9.017059,1.5169219999999999,-1.2024078,1
1622,9.014664,1.5049438,-1.2538757,1
1623,9.025436000000001,1.4965667999999999,-1.2239532,1
1624,9.036209,1.5193176000000002,-1.2179718000000002,1
1625,9.014664,1.5001526,-1.2083893,1
1626,9.012267999999999,1.5109406,-1.243103,1
1627,9.015854,1.4846039,-1.1964111000000002,1
1628,9.007477,1.4917755,-1.2299347,1
1629,8.985930999999999,1.5085449,-1.2095795,1
1630,9.00029,1.5504303,-1.1629028000000001,1
1631,9.012267999999999,1.5252991000000002,-1.1700745000000001,1
1632,9.050568,1.5336761,-1.2478943,1
1633,9.008666999999999,1.5109406,-1.2131805,1
1634,8.969161999999999,1.501358,-1.1389618000000001,1
1635,9.025436000000001,1.4965667999999999,-1.1724701000000002,1
1636,9.0733185,1.5671997,-1.2670441000000001,1
1637,9.014664,1.5480499,-1.2658539,1
1638,9.007477,1.5252991000000002,-1.1952209999999999,1
1639,8.994308,1.5121307,-1.1509247,1
1640,8.975159,1.5480499,-1.0958557,1
1641,8.9991,1.5683899,-1.104248,1
1642,8.990723,1.571991,-1.1377563,1
1643,9.0182495,1.5851593000000002,-1.1389618000000001,1
1644,9.005081,1.5456543,-1.2012024,1
1645,9.033813,1.5671997,-1.2024078,1
1646,9.014664,1.5600128,-1.1904297,1
1647,9.027832,1.5456543,-1.1593018,1
1648,9.041,1.5073395,-1.1629028000000001,1
1649,9.005081,1.5264893,-1.2095795,1
1650,9.041,1.4798126,-1.2012024,1
1651,9.020645,1.477417,-1.2024078,1
1652,9.024231,1.4977722,-1.164093,1
1653,8.995499,1.4666443,-1.1700745000000001,1
1654,8.984726,1.4869843,-1.1509247,1
1655,9.0182495,1.477417,-1.1425476,1
1656,9.035003999999999,1.5384673999999998,-1.143753,1
1657,9.050568,1.4893798999999999,-1.1736754999999999,1
1658,9.029022,1.4941711000000002,-1.155716,1
1659,9.006287,1.5336761,-1.1030426000000002,1
1660,8.989517,1.5444489,-1.0838927999999999,1
1661,8.990723,1.5252991000000002,-1.1221923999999999,1
1662,9.0182495,1.4905853,-1.1030426000000002,1
1663,9.021835000000001,1.5229034,-1.1018523999999998,1
1664,9.032608,1.5432587,-1.1461333999999999,1
1665,9.006287,1.5348816,-1.1341705,1
1666,9.019455,1.5480499,-1.1784668,1
1667,9.06134,1.5504303,-1.1676941,1
1668,9.048172000000001,1.5480499,-1.1976166000000001,1
1669,8.972763,1.5205078,-1.1425476,1
1670,9.031417999999999,1.5133208999999999,-1.1150208000000001,1
1671,9.052963,1.5240936,-1.2083893,1
1672,9.013458,1.4977722,-1.2371216,1
1673,9.006287,1.4786072000000001,-1.1233978,1
1674,9.041,1.4654388,-1.1186066000000001,1
1675,9.042191,1.4714355,-1.0898743,1
1676,9.026627000000001,1.4846039,-1.1054382,1
1677,8.98114,1.556427,-1.0635376,1
1678,8.991913,1.5348816,-1.0743103,1
1679,8.98114,1.5193176000000002,-1.064743,1
1680,9.054169,1.5109406,-1.0755157,1
1681,9.037399,1.5085449,-1.0575562,1
1682,9.033813,1.5217133,-1.0491791000000001,1
1683,9.012267999999999,1.5312805,-1.0575562,1
1684,9.019455,1.5240936,-1.0683288999999998,1
1685,8.994308,1.5157166000000002,-1.0431824,1
1686,9.012267999999999,1.5085449,-1.0814972,1
1687,9.005081,1.5049438,-1.1102295,1
1688,9.011063,1.5001526,-1.0395966,1
1689,9.008666999999999,1.5001526,-1.0348053,1
1690,9.035003999999999,1.5001526,-1.0791016000000002,1
1691,9.030228,1.5121307,-1.1054382,1
1692,9.030228,1.5456543,-1.0874786,1
1693,9.027832,1.5312805,-1.0910796999999999,1
1694,9.009872,1.5205078,-1.0707245,1
1695,9.009872,1.5109406,-1.0539703,1
1696,9.031417999999999,1.4965667999999999,-1.0814972,1
1697,9.020645,1.5276947,-1.040802,1
1698,9.048172000000001,1.492981,-1.0886841,1
1699,9.054169,1.5181122,-1.1150208000000001,1
1700,9.036209,1.5360718,-1.1293792999999999,1
1701,9.020645,1.5217133,-1.1329651,1
1702,9.003891000000001,1.5504303,-1.1030426000000002,1
1703,9.027832,1.5061493000000001,-1.1509247,1
1704,9.00029,1.5504303,-1.1497344999999999,1
1705,8.991913,1.532486,-1.1150208000000001,1
1706,9.013458,1.5252991000000002,-1.0515747,1
1707,9.080505,1.5157166000000002,-1.1605072,1
1708,9.044586,1.5456543,-1.2299347,1
1709,9.009872,1.5252991000000002,-1.2012024,1
1710,9.011063,1.4893798999999999,-1.1066284,1
1711,9.025436000000001,1.477417,-1.0946655,1
1712,8.988327,1.5025482,-1.0886841,1
1713,8.984726,1.5384673999999998,-1.1605072,1
1714,9.006287,1.5121307,-1.1197968,1
1715,8.972763,1.4977722,-1.140152,1
1716,9.007477,1.501358,-1.1593018,1
1717,9.037399,1.461853,-1.1664886,1
1718,9.035003999999999,1.4977722,-1.1593018,1
1719,9.044586,1.4953766000000002,-1.1844482,1
1720,9.035003999999999,1.5145263999999998,-1.179657,1
1721,9.001495,1.5396576000000002,-1.1952209999999999,1
1722,9.029022,1.5049438,-1.188034,1
1723,9.009872,1.4905853,-1.1736754999999999,1
1724,9.014664,1.4977722,-1.188034,1
1725,9.002686,1.532486,-1.2071991000000002,1
1726,9.026627000000001,1.4977722,-1.2167663999999998,1
1727,9.029022,1.5073395,-1.2251433999999999,1
1728,9.045776,1.5037537,-1.219162,1
1729,9.014664,1.5348816,-1.2227478,1
1730,8.995499,1.5133208999999999,-1.2490845,1
1731,9.017059,1.5300903000000001,-1.2335358,1
1732,9.007477,1.5049438,-1.2419128000000001,1
1733,8.9991,1.4642487,-1.2598572000000001,1
1734,9.014664,1.4690398999999998,-1.2179718000000002,1
1735,9.029022,1.4798126,-1.2502898999999998,1
1736,9.009872,1.501358,-1.1784668,1
1737,9.005081,1.5252991000000002,-1.1365662,1
1738,9.029022,1.5193176000000002,-1.1593018,1
1739,9.029022,1.5276947,-1.1784668,1
1740,8.987122,1.5600128,-1.1916351,1
1741,8.988327,1.4953766000000002,-1.179657,1
1742,9.118805,1.4822083000000001,-1.2550812,1
1743,9.096069,1.4678345,-1.3568268,1
1744,9.032608,1.4810028,-1.2897949,1
1745,9.025436000000001,1.4738159,-1.1210022,1
1746,8.972763,1.5229034,-1.104248,1
1747,8.989517,1.5336761,-1.1078339,1
1748,9.043396000000001,1.5157166000000002,-1.1018523999999998,1
1749,8.9991,1.5001526,-1.1353607,1
1750,9.029022,1.5372620000000001,-1.1772614,1
1751,9.024231,1.5492401000000002,-1.1808624,1
1752,9.038605,1.5133208999999999,-1.1748657,1
1753,9.052963,1.5121307,-1.069519,1
1754,9.031417999999999,1.5061493000000001,-1.0898743,1
1755,9.009872,1.5169219999999999,-1.0755157,1
1756,8.995499,1.5097351,-1.0862885,1
1757,9.027832,1.4917755,-1.140152,1
1758,9.038605,1.4953766000000002,-1.143753,1
1759,9.038605,1.5061493000000001,-1.0767058999999999,1
1760,9.050568,1.4666443,-1.0862885,1
1761,8.9991,1.4905853,-1.064743,1
1762,9.019455,1.4654388,-1.0659332000000001,1
1763,9.031417999999999,1.4762115,-1.0862885,1
1764,9.055359,1.4702301000000002,-1.0838927999999999,1
1765,9.055359,1.4630432,-1.061142,1
1766,9.026627000000001,1.4869843,-1.061142,1
1767,9.030228,1.5169219999999999,-1.061142,1
1768,9.046982,1.4726257,-1.0515747,1
1769,9.019455,1.4833983999999998,-1.0599518,1
1770,9.026627000000001,1.4642487,-1.0228424,1
1771,9.033813,1.4582671999999999,-1.0527649,1
1772,9.044586,1.4510802999999999,-1.104248,1
1773,9.00029,1.4786072000000001,-1.0132599,1
1774,9.017059,1.5085449,-0.97135925,1
1775,9.06015,1.5240936,-1.0036774,1
1776,9.086487,1.5288848999999998,-1.0946655,1
1777,9.032608,1.5109406,-1.0910796999999999,1
1778,9.023041000000001,1.4558716,-1.0455780000000001,1
1779,9.015854,1.4654388,-0.9941101000000001,1
1780,8.995499,1.4690398999999998,-1.0120697,1
1781,9.009872,1.5097351,-1.0156555,1
1782,9.011063,1.5193176000000002,-1.0084686,1
1783,9.011063,1.4977722,-1.0084686,1
1784,9.035003999999999,1.5169219999999999,-1.0204468,1
1785,9.072113,1.5193176000000002,-1.040802,1
1786,9.050568,1.4786072000000001,-1.0312195,1
1787,9.074508999999999,1.4510802999999999,-1.0372009,1
1788,9.020645,1.4726257,-1.0036774,1
1789,8.975159,1.5073395,-1.0288239,1
1790,9.030228,1.4941711000000002,-1.0024872,1
1791,9.044586,1.4917755,-1.0084686,1
1792,9.038605,1.4881897,-0.97854614,1
1793,9.052963,1.4750214,-0.9845276,1
1794,9.042191,1.4690398999999998,-0.9797363000000001,1
1795,9.055359,1.4642487,-0.98931885,1
1796,9.031417999999999,1.4714355,-0.9797363000000001,1
1797,9.048172000000001,1.4810028,-1.0108643,1
1798,9.063736,1.4869843,-1.0024872,1
1799,9.037399,1.4654388,-1.0048828,1
1800,9.048172000000001,1.4486847,-0.9941101000000001,1
1801,9.026627000000001,1.4869843,-1.0132599,1
1802,9.0577545,1.4714355,-1.0312195,1
1803,9.045776,1.5384673999999998,-1.0336151,1
1804,9.006287,1.4953766000000002,-0.9797363000000001,1
1805,9.035003999999999,1.5061493000000001,-0.9737549000000001,1
1806,9.043396000000001,1.4917755,-1.0096741,1
1807,9.039795,1.4678345,-1.0431824,1
1808,9.026627000000001,1.453476,-1.0791016000000002,1
1809,8.989517,1.4462891000000002,-0.96777344,1
1810,9.075714,1.4546661,-0.98931885,1
1811,9.0972595,1.5181122,-0.99890137,1
1812,9.019455,1.5336761,-0.98213196,1
1813,9.015854,1.4989624,-1.0132599,1
1814,9.051772999999999,1.4582671999999999,-1.0264282,1
1815,9.06015,1.4295349,-0.9869232,1
1816,9.020645,1.4846039,-0.9450226,1
1817,8.963181,1.477417,-0.9737549000000001,1
1818,8.96199,1.4905853,-0.98931885,1
1819,8.985930999999999,1.5145263999999998,-1.0348053,1
1820,9.021835000000001,1.5468445,-1.1018523999999998,1
1821,9.175064,1.5528258999999998,-1.1605072,1
1822,9.121201,1.4857941000000001,-1.1616973999999998,1
1823,9.06015,1.4738159,-1.1114197000000001,1
1824,8.965575999999999,1.4438933999999999,-1.0707245,1
1825,8.987122,1.4570618,-1.0503693,1
1826,8.97995,1.5037537,-1.0779113999999999,1
1827,9.002686,1.4941711000000002,-1.0671386999999999,1
1828,9.038605,1.5085449,-1.100647,1
1829,9.021835000000001,1.4786072000000001,-1.1138153,1
1830,9.049377,1.4319305,-1.0838927999999999,1
1831,9.041,1.4810028,-1.1449432,1
1832,9.044586,1.4666443,-1.1485290000000001,1
1833,9.017059,1.5001526,-1.1257935,1
1834,8.977554,1.4846039,-1.1030426000000002,1
1835,9.0182495,1.501358,-1.1389618000000001,1
1836,8.993117999999999,1.4810028,-1.1521301000000002,1
1837,9.038605,1.4594573999999998,-1.1688843,1
1838,9.003891000000001,1.4822083000000001,-1.1868439,1
1839,8.993117999999999,1.4893798999999999,-1.1808624,1
1840,9.033813,1.4702301000000002,-1.1892395,1
1841,9.066132000000001,1.5217133,-1.2119751,1
1842,9.037399,1.5169219999999999,-1.1952209999999999,1
1843,8.950012,1.4905853,-1.1186066000000001,1
1844,8.997894,1.5300903000000001,-1.1353607,1
1845,9.07811,1.5336761,-1.2419128000000001,1
1846,9.008666999999999,1.5300903000000001,-1.3556366000000002,1
1847,8.985930999999999,1.4546661,-1.2167663999999998,1
1848,9.037399,1.4678345,-1.2251433999999999,1
1849,9.019455,1.4678345,-1.2203674,1
1850,8.98114,1.4786072000000001,-1.2000122,1
1851,8.977554,1.5001526,-1.1521301000000002,1
1852,8.995499,1.4893798999999999,-1.1736754999999999,1
1853,9.003891000000001,1.4714355,-1.1964111000000002,1
1854,9.036209,1.5025482,-1.1281891000000002,1
1855,9.069733,1.4762115,-1.1772614,1
1856,9.056564,1.4965667999999999,-1.1449432,1
1857,9.039795,1.5109406,-1.1784668,1
1858,8.969161999999999,1.5288848999999998,-1.2311401000000002,1
1859,8.996704,1.4989624,-1.2048035,1
1860,9.015854,1.5252991000000002,-1.1832428,1
1861,9.013458,1.5037537,-1.1712798999999998,1
1862,9.020645,1.5240936,-1.155716,1
1863,9.020645,1.5217133,-1.1545258,1
1864,8.993117999999999,1.5109406,-1.1533203,1
1865,9.029022,1.4810028,-1.1221923999999999,1
1866,9.015854,1.4881897,-1.1210022,1
1867,9.031417999999999,1.5001526,-1.1329651,1
1868,9.055359,1.5336761,-1.1293792999999999,1
1869,9.027832,1.5133208999999999,-1.1197968,1
1870,9.009872,1.5229034,-1.1162108999999998,1
1871,9.037399,1.5061493000000001,-1.1102295,1
1872,9.036209,1.5037537,-1.1114197000000001,1
1873,9.055359,1.4905853,-1.109024,1
1874,9.044586,1.4750214,-1.1605072,1
1875,8.982330000000001,1.4833983999999998,-1.0755157,1
1876,9.027832,1.477417,-1.0719147,1
1877,9.091277999999999,1.4738159,-1.0946655,1
1878,9.019455,1.5157166000000002,-1.1868439,1
1879,9.001495,1.4558716,-1.143753,1
1880,9.021835000000001,1.4462891000000002,-1.1389618000000001,1
1881,9.030228,1.477417,-1.124588,1
1882,9.009872,1.5193176000000002,-1.0946655,1
1883,9.020645,1.5061493000000001,-1.064743,1
1884,9.001495,1.5288848999999998,-1.0886841,1
1885,9.013458,1.5193176000000002,-1.1138153,1
1886,9.054169,1.5240936,-1.1221923999999999,1
1887,9.032608,1.4798126,-1.0563506999999999,1
1888,9.043396000000001,1.4714355,-1.0767058999999999,1
1889,9.021835000000001,1.5157166000000002,-1.0934601000000002,1
1890,9.011063,1.5193176000000002,-1.0755157,1
1891,9.011063,1.4738159,-1.1066284,1
1892,9.042191,1.4666443,-1.0671386999999999,1
1893,9.050568,1.461853,-1.061142,1
1894,9.023041000000001,1.4798126,-1.0467834,1
1895,9.017059,1.5049438,-1.1210022,1
1896,9.048172000000001,1.4810028,-1.0767058999999999,1
1897,9.032608,1.5133208999999999,-1.0743103,1
1898,9.015854,1.5145263999999998,-1.0743103,1
1899,8.996704,1.492981,-1.085083,1
1900,9.024231,1.4977722,-1.0874786,1
1901,9.035003999999999,1.4822083000000001,-1.0779113999999999,1
1902,9.017059,1.477417,-1.0599518,1
1903,9.039795,1.4438933999999999,-1.0731201000000001,1
1904,9.032608,1.5097351,-1.0802916999999999,1
1905,9.036209,1.4881897,-1.1018523999999998,1
1906,9.017059,1.4786072000000001,-1.0348053,1
1907,9.017059,1.4750214,-1.0180511,1
1908,9.051772999999999,1.4654388,-0.99890137,1
1909,9.069733,1.4690398999999998,-1.0946655,1
1910,9.005081,1.4630432,-1.0324096999999999,1
1911,9.025436000000001,1.4714355,-1.0431824,1
1912,9.072113,1.5169219999999999,-1.1269836000000002,1
1913,9.052963,1.5360718,-1.1724701000000002,1
1914,9.033813,1.4905853,-1.0814972,1
1915,9.048172000000001,1.4259338,-1.0132599,1
1916,9.033813,1.4558716,-1.0132599,1
1917,9.015854,1.5085449,-1.0000916,1
1918,8.994308,1.5001526,-1.0443878,1
1919,9.00029,1.5049438,-1.0467834,1
1920,9.029022,1.4881897,-1.0515747,1
1921,9.026627000000001,1.4846039,-1.0659332000000001,1
1922,9.044586,1.492981,-1.0276337,1
1923,9.020645,1.4666443,-1.0264282,1
1924,9.058945,1.4822083000000001,-1.0180511,1
1925,9.014664,1.4965667999999999,-1.0671386999999999,1
1926,9.020645,1.4917755,-1.0455780000000001,1
1927,9.014664,1.4822083000000001,-1.0491791000000001,1
1928,9.020645,1.4702301000000002,-1.0360107,1
1929,9.044586,1.4726257,-1.0228424,1
1930,9.037399,1.4702301000000002,-1.0623474,1
1931,9.033813,1.453476,-1.0575562,1
1932,9.024231,1.453476,-1.0779113999999999,1
1933,9.025436000000001,1.5121307,-1.0623474,1
1934,9.017059,1.5037537,-1.0755157,1
1935,9.032608,1.5252991000000002,-1.0814972,1
1936,9.023041000000001,1.5073395,-1.0671386999999999,1
1937,9.015854,1.4450988999999999,-1.0707245,1
1938,9.039795,1.4941711000000002,-1.0288239,1
1939,9.023041000000001,1.4965667999999999,-1.0683288999999998,1
1940,9.019455,1.5181122,-1.0431824,1
1941,8.990723,1.5552216,-1.1030426000000002,1
1942,9.031417999999999,1.5468445,-1.1066284,1
1943,9.041,1.5252991000000002,-1.0946655,1
1944,9.0577545,1.4953766000000002,-1.1652985,1
1945,8.991913,1.4666443,-1.100647,1
1946,8.994308,1.4474791999999999,-1.069519,1
1947,9.117614999999999,1.5049438,-1.1197968,1
1948,9.076903999999999,1.4989624,-1.2838135,1
1949,9.023041000000001,1.4678345,-1.2443084999999998,1
1950,9.006287,1.437912,-1.1449432,1
1951,9.048172000000001,1.4403076000000001,-1.1712798999999998,1
1952,9.007477,1.4941711000000002,-1.140152,1
1953,9.019455,1.5085449,-1.1497344999999999,1
1954,9.006287,1.4822083000000001,-1.1652985,1
1955,9.0182495,1.4846039,-1.1688843,1
1956,9.037399,1.4822083000000001,-1.2179718000000002,1
1957,9.050568,1.4654388,-1.1652985,1
1958,9.035003999999999,1.4762115,-1.1317749,1
1959,8.997894,1.4965667999999999,-1.1257935,1
1960,8.995499,1.5025482,-1.1784668,1
1961,8.98114,1.4822083000000001,-1.1892395,1
1962,9.001495,1.461853,-1.1545258,1
1963,9.024231,1.4582671999999999,-1.1712798999999998,1
1964,9.048172000000001,1.4678345,-1.2071991000000002,1
1965,9.009872,1.5169219999999999,-1.1964111000000002,1
1966,9.014664,1.4642487,-1.2263488999999999,1
1967,8.994308,1.4690398999999998,-1.2119751,1
1968,9.020645,1.4702301000000002,-1.2071991000000002,1
1969,9.033813,1.5109406,-1.1940308000000002,1
1970,9.023041000000001,1.4941711000000002,-1.1664886,1
1971,8.996704,1.4678345,-1.1868439,1
1972,9.015854,1.4678345,-1.1988068,1
1973,8.985930999999999,1.4822083000000001,-1.1688843,1
1974,9.015854,1.4833983999999998,-1.1581116000000002,1
1975,8.994308,1.4905853,-1.1856383999999998,1
1976,9.024231,1.4582671999999999,-1.124588,1
1977,9.030228,1.5133208999999999,-1.1126251,1
1978,9.042191,1.5037537,-1.1281891000000002,1
1979,9.031417999999999,1.4702301000000002,-1.1772614,1
1980,8.967972,1.5049438,-1.1138153,1
1981,8.9991,1.4702301000000002,-1.0659332000000001,1
1982,9.076903999999999,1.4857941000000001,-1.1150208000000001,1
1983,9.070922999999999,1.5025482,-1.2323302999999999,1
1984,9.06134,1.5073395,-1.2083893,1
1985,9.007477,1.5109406,-1.1281891000000002,1
1986,9.002686,1.4905853,-1.0922698999999998,1
1987,8.990723,1.4881897,-1.0862885,1
1988,9.011063,1.5240936,-1.040802,1
1989,9.019455,1.4905853,-1.0838927999999999,1
1990,9.015854,1.4977722,-1.140152,1
1991,9.017059,1.4989624,-1.1581116000000002,1
1992,9.048172000000001,1.4822083000000001,-1.1197968,1
1993,9.025436000000001,1.4893798999999999,-1.0587463,1
1994,9.069733,1.4762115,-1.0802916999999999,1
1995,9.031417999999999,1.4798126,-1.0898743,1
1996,9.043396000000001,1.4558716,-1.0862885,1
1997,9.032608,1.4810028,-1.0970612,1
1998,9.041,1.4678345,-1.1138153,1
1999,9.021835000000001,1.4391022,-1.0922698999999998,1
2000,9.038605,1.4510802999999999,-1.0767058999999999,1
2001,9.011063,1.4702301000000002,-1.0623474,1
2002,9.012267999999999,1.4510802999999999,-1.0671386999999999,1
2003,9.005081,1.4462891000000002,-1.0814972,1
2004,9.046982,1.4403076000000001,-1.0743103,1
2005,9.024231,1.461853,-1.0838927999999999,1
2006,9.032608,1.5025482,-1.0862885,1
2007,9.020645,1.4570618,-1.0958557,1
2008,9.024231,1.4522705,-1.0719147,1
2009,9.037399,1.4558716,-1.0910796999999999,1
2010,9.044586,1.4762115,-1.0671386999999999,1
2011,9.051772999999999,1.4881897,-1.0791016000000002,1
2012,9.051772999999999,1.4869843,-1.0671386999999999,1
2013,9.035003999999999,1.4857941000000001,-1.085083,1
2014,9.045776,1.4642487,-1.0467834,1
2015,9.037399,1.4846039,-1.1018523999999998,1
2016,9.026627000000001,1.4606476000000002,-1.0826874,1
2017,9.006287,1.4642487,-1.0084686,1
2018,9.049377,1.4810028,-1.0491791000000001,1
2019,9.086487,1.4846039,-1.1485290000000001,1
2020,9.035003999999999,1.4498749,-1.1269836000000002,1
2021,9.055359,1.4427032,-1.0551605,1
2022,9.019455,1.4558716,-1.0252379999999999,1
2023,9.019455,1.4630432,-1.0168457,1
2024,9.007477,1.5085449,-1.0024872,1
2025,9.008666999999999,1.501358,-1.0336151,1
2026,9.009872,1.4642487,-1.0587463,1
2027,9.036209,1.4570618,-1.0395966,1
2028,9.038605,1.4498749,-1.006073,1
2029,9.07811,1.4582671999999999,-1.0240326,1
2030,9.054169,1.4606476000000002,-1.0096741,1
2031,9.049377,1.4857941000000001,-1.0743103,1
2032,9.033813,1.4678345,-1.0312195,1
2033,9.005081,1.5025482,-1.0000916,1
2034,9.025436000000001,1.4606476000000002,-1.0360107,1
2035,9.039795,1.4678345,-1.0276337,1
2036,9.043396000000001,1.4355163999999998,-1.0527649,1
2037,9.042191,1.4690398999999998,-1.0336151,1
2038,9.046982,1.4690398999999998,-1.0000916,1
2039,9.066132000000001,1.4762115,-0.9905243,1
2040,9.044586,1.4666443,-1.0360107,1
2041,9.043396000000001,1.4702301000000002,-1.0312195,1
2042,9.064941000000001,1.4654388,-1.0216370000000001,1
2043,9.039795,1.4486847,-1.0551605,1
2044,9.023041000000001,1.4798126,-1.0384064,1
2045,9.0182495,1.4989624,-0.9845276,1
2046,9.030228,1.4786072000000001,-1.0072784,1
2047,9.036209,1.477417,-0.98931885,1
2048,9.021835000000001,1.4570618,-1.0360107,1
2049,9.021835000000001,1.4427032,-1.0336151,1
2050,9.036209,1.4917755,-1.0204468,1
2051,9.067337,1.4917755,-1.0731201000000001,1
2052,9.070922999999999,1.4678345,-1.1078339,1
2053,9.06134,1.4427032,-1.0395966,1
2054,8.990723,1.5001526,-0.9354553,1
2055,9.033813,1.4833983999999998,-0.85284424,1
2056,9.056564,1.5109406,-0.9941101000000001,1
2057,9.035003999999999,1.4977722,-1.064743,1
2058,9.021835000000001,1.4283295,-0.9953003,1
2059,9.0577545,1.4199524,-0.9174957,1
2060,9.017059,1.4750214,-0.9438324,1
2061,9.013458,1.4702301000000002,-0.9402313,1
2062,8.973953,1.5097351,-0.966568,1
2063,9.0182495,1.4582671999999999,-1.040802,1
2064,9.068527,1.4498749,-1.0527649,1
2065,9.0793,1.4738159,-1.0755157,1
2066,9.0577545,1.4450988999999999,-1.0384064,1
2067,9.064941000000001,1.461853,-1.0575562,1
2068,9.054169,1.4666443,-1.0276337,1
2069,9.033813,1.4606476000000002,-1.040802,1
2070,9.001495,1.4510802999999999,-1.0802916999999999,1
2071,9.039795,1.4486847,-1.0779113999999999,1
2072,9.023041000000001,1.4546661,-1.069519,1
2073,9.025436000000001,1.4319305,-1.0707245,1
2074,9.017059,1.461853,-1.061142,1
2075,9.014664,1.4558716,-1.061142,1
2076,9.021835000000001,1.4606476000000002,-1.0922698999999998,1
2077,9.048172000000001,1.4510802999999999,-1.0910796999999999,1
2078,9.037399,1.4786072000000001,-1.0719147,1
2079,9.036209,1.5049438,-1.1341705,1
2080,8.993117999999999,1.4414978,-1.1425476,1
2081,9.014664,1.461853,-1.1281891000000002,1
2082,9.008666999999999,1.4678345,-1.1317749,1
2083,9.024231,1.4714355,-1.1078339,1
2084,9.0182495,1.4762115,-1.1377563,1
2085,9.045776,1.4941711000000002,-1.1269836000000002,1
2086,9.041,1.4582671999999999,-1.2012024,1
2087,8.996704,1.4367065,-1.1545258,1
2088,9.035003999999999,1.4666443,-1.1150208000000001,1
2089,9.06015,1.4654388,-1.1652985,1
2090,9.036209,1.4642487,-1.2311401000000002,1
2091,8.9991,1.4391022,-1.1964111000000002,1
2092,9.043396000000001,1.4331207000000001,-1.1760712,1
2093,9.085281,1.4714355,-1.2419128000000001,1
2094,9.029022,1.4630432,-1.2574768,1
2095,9.038605,1.4235381999999999,-1.1221923999999999,1
2096,9.045776,1.4175568,-1.0970612,1
2097,9.0182495,1.4570618,-1.1066284,1
2098,8.991913,1.4762115,-1.1102295,1
2099,9.0182495,1.4762115,-1.0886841,1
2100,8.97995,1.4690398999999998,-1.1221923999999999,1
2101,9.044586,1.4630432,-1.1652985,1
2102,9.043396000000001,1.4726257,-1.1317749,1
2103,9.052963,1.4678345,-1.1186066000000001,1
2104,9.044586,1.4427032,-1.069519,1
2105,9.039795,1.4498749,-1.0802916999999999,1
2106,9.027832,1.4846039,-1.1269836000000002,1
2107,9.0182495,1.4738159,-1.1078339,1
2108,8.994308,1.4726257,-1.1305847,1
2109,9.038605,1.4331207000000001,-1.1389618000000001,1
2110,9.033813,1.4678345,-1.1221923999999999,1
2111,9.033813,1.4714355,-1.1150208000000001,1
2112,9.019455,1.4486847,-1.0791016000000002,1
2113,9.029022,1.4427032,-1.1138153,1
2114,9.051772999999999,1.4678345,-1.1281891000000002,1
2115,9.044586,1.4822083000000001,-1.1293792999999999,1
2116,9.025436000000001,1.5193176000000002,-1.1449432,1
2117,9.019455,1.4750214,-1.1317749,1
2118,9.037399,1.4510802999999999,-1.1473388999999998,1
2119,9.021835000000001,1.4750214,-1.1102295,1
2120,9.06134,1.4450988999999999,-1.1281891000000002,1
2121,9.06015,1.4570618,-1.1102295,1
2122,9.033813,1.453476,-1.1150208000000001,1
2123,9.012267999999999,1.461853,-1.0599518,1
2124,9.019455,1.4881897,-1.1018523999999998,1
2125,9.072113,1.501358,-1.0994568,1
2126,9.062546000000001,1.4762115,-1.0886841,1
2127,8.990723,1.4474791999999999,-1.0228424,1
2128,9.039795,1.4510802999999999,-1.0096741,1
2129,9.07811,1.4822083000000001,-1.143753,1
2130,9.035003999999999,1.461853,-1.1365662,1
2131,9.030228,1.4917755,-1.1197968,1
2132,9.038605,1.4283295,-1.0731201000000001,1
2133,9.030228,1.4438933999999999,-1.0168457,1
2134,9.013458,1.4630432,-1.0216370000000001,1
2135,9.011063,1.4786072000000001,-0.9833374,1
2136,9.020645,1.477417,-1.064743,1
2137,9.014664,1.4786072000000001,-1.030014,1
2138,9.032608,1.4331207000000001,-1.0455780000000001,1
2139,9.038605,1.4642487,-1.0515747,1
2140,9.048172000000001,1.4546661,-1.0348053,1
2141,9.041,1.4738159,-1.0288239,1
2142,9.008666999999999,1.4893798999999999,-1.0384064,1
2143,9.046982,1.4833983999999998,-1.0419922,1
2144,9.046982,1.4498749,-1.0707245,1
2145,9.050568,1.4139709999999999,-1.030014,1
2146,9.06134,1.453476,-1.0372009,1
2147,9.035003999999999,1.4714355,-1.0036774,1
2148,9.031417999999999,1.4510802999999999,-1.0503693,1
2149,9.067337,1.4606476000000002,-0.9917145,1
2150,9.043396000000001,1.4690398999999998,-1.0515747,1
2151,9.043396000000001,1.4810028,-0.99890137,1
2152,9.044586,1.4869843,-1.0527649,1
2153,9.051772999999999,1.4462891000000002,-1.069519,1
2154,9.029022,1.4810028,-1.0252379999999999,1
2155,9.039795,1.4738159,-1.0276337,1
2156,9.024231,1.4594573999999998,-1.0120697,1
2157,9.043396000000001,1.4522705,-1.0168457,1
2158,9.032608,1.461853,-1.0503693,1
2159,9.013458,1.4438933999999999,-1.0431824,1
2160,8.994308,1.4582671999999999,-0.98812866,1
2161,9.035003999999999,1.4917755,-1.0108643,1
2162,9.067337,1.4582671999999999,-1.0288239,1
2163,9.023041000000001,1.461853,-1.0024872,1
2164,8.971558,1.4139709999999999,-0.9725647,1
2165,9.081696,1.4414978,-0.9869232,1
2166,9.091277999999999,1.4726257,-1.061142,1
2167,9.06015,1.4570618,-1.0838927999999999,1
2168,9.068527,1.3876343,-1.0264282,1
2169,9.042191,1.4103698999999998,-1.0348053,1
2170,9.044586,1.4355163999999998,-1.0312195,1
2171,9.007477,1.4606476000000002,-1.0000916,1
2172,8.98114,1.4690398999999998,-0.94262695,1
2173,9.031417999999999,1.5157166000000002,-0.9546051,1
2174,9.011063,1.477417,-1.0036774,1
2175,9.032608,1.4450988999999999,-1.0072784,1
2176,9.066132000000001,1.4438933999999999,-0.9737549000000001,1
2177,9.063736,1.4331207000000001,-0.95339966,1
2178,9.046982,1.4666443,-0.9737549000000001,1
2179,8.9991,1.4690398999999998,-0.94862366,1
2180,8.97995,1.4714355,-1.0036774,1
2181,9.007477,1.4678345,-1.0479736,1
2182,9.067337,1.4786072000000001,-1.1389618000000001,1
2183,9.104446000000001,1.461853,-1.2012024,1
2184,9.102051,1.4259338,-1.1916351,1
2185,9.0733185,1.4187622,-1.1233978,1
2186,9.026627000000001,1.4175568,-1.0683288999999998,1
2187,8.973953,1.4654388,-1.0994568,1
2188,8.975159,1.4822083000000001,-1.1461333999999999,1
2189,9.017059,1.4822083000000001,-1.1736754999999999,1
2190,9.023041000000001,1.4630432,-1.1976166000000001,1
2191,9.030228,1.4570618,-1.1605072,1
2192,9.055359,1.4403076000000001,-1.1664886,1
2193,9.029022,1.4283295,-1.1700745000000001,1
2194,9.037399,1.406784,-1.1772614,1
2195,9.014664,1.4893798999999999,-1.1952209999999999,1
2196,8.995499,1.477417,-1.2131805,1
2197,9.014664,1.4702301000000002,-1.1940308000000002,1
2198,9.026627000000001,1.4642487,-1.2119751,1
2199,8.987122,1.4857941000000001,-1.2048035,1
2200,8.988327,1.4726257,-1.1485290000000001,1
2201,9.045776,1.4522705,-1.1664886,1
2202,9.068527,1.4570618,-1.2395171999999999,1
2203,8.975159,1.4582671999999999,-1.2766266000000002,1
2204,8.993117999999999,1.4187622,-1.1856383999999998,1
2205,9.039795,1.4558716,-1.219162,1
2206,8.997894,1.4714355,-1.2287445,1
2207,8.969161999999999,1.4798126,-1.2526855,1
2208,8.967972,1.4594573999999998,-1.2850037,1
2209,9.017059,1.4355163999999998,-1.2155761999999999,1
2210,9.017059,1.4642487,-1.2646483999999998,1
2211,9.0182495,1.4139709999999999,-1.2634583000000001,1
2212,9.048172000000001,1.406784,-1.234726,1
2213,9.009872,1.4510802999999999,-1.2646483999999998,1
2214,8.983536,1.4738159,-1.2323302999999999,1
2215,8.997894,1.4654388,-1.219162,1
2216,9.024231,1.4522705,-1.2514801000000002,1
2217,9.045776,1.4414978,-1.2478943,1
2218,9.015854,1.4666443,-1.2550812,1
2219,9.020645,1.4295349,-1.1940308000000002,1
2220,8.994308,1.4091797,-1.2598572000000001,1
2221,9.007477,1.4450988999999999,-1.2383118,1
2222,9.055359,1.4846039,-1.2287445,1
2223,9.024231,1.4786072000000001,-1.2502898999999998,1
2224,9.0733185,1.4822083000000001,-1.2466888,1
2225,9.06015,1.4822083000000001,-1.2012024,1
2226,9.017059,1.4642487,-1.2275391000000002,1
2227,9.00029,1.4642487,-1.2323302999999999,1
2228,8.990723,1.4414978,-1.1605072,1
2229,9.054169,1.4391022,-1.2048035,1
2230,9.027832,1.4690398999999998,-1.2287445,1
2231,8.994308,1.4474791999999999,-1.1940308000000002,1
2232,9.044586,1.4558716,-1.1964111000000002,1
2233,9.066132000000001,1.4833983999999998,-1.1497344999999999,1
2234,9.027832,1.492981,-1.219162,1
2235,8.994308,1.453476,-1.1988068,1
2236,9.0182495,1.4570618,-1.1497344999999999,1
2237,8.993117999999999,1.4355163999999998,-1.1377563,1
2238,9.058945,1.4558716,-1.1030426000000002,1
2239,9.007477,1.4654388,-1.1305847,1
2240,8.991913,1.461853,-1.1353607,1
2241,8.989517,1.4582671999999999,-1.1533203,1
2242,9.031417999999999,1.4438933999999999,-1.1521301000000002,1
2243,9.0577545,1.4367065,-1.1269836000000002,1
2244,9.030228,1.4798126,-1.0898743,1
2245,9.039795,1.4474791999999999,-1.1425476,1
2246,9.038605,1.4558716,-1.1305847,1
2247,9.036209,1.4702301000000002,-1.1533203,1
2248,9.003891000000001,1.4462891000000002,-1.1736754999999999,1
2249,9.044586,1.3995971999999999,-1.1018523999999998,1
2250,9.026627000000001,1.4414978,-1.1305847,1
2251,9.005081,1.4367065,-1.1652985,1
2252,9.009872,1.4414978,-1.1413574,1
2253,9.031417999999999,1.4427032,-1.1377563,1
2254,9.009872,1.4498749,-1.1078339,1
2255,9.003891000000001,1.4498749,-1.1221923999999999,1
2256,9.027832,1.4833983999999998,-1.1712798999999998,1
2257,9.002686,1.4414978,-1.1593018,1
2258,9.008666999999999,1.4331207000000001,-1.0862885,1
2259,9.015854,1.4822083000000001,-1.1365662,1
2260,9.024231,1.4630432,-1.1257935,1
2261,9.023041000000001,1.4570618,-1.1389618000000001,1
2262,9.050568,1.4438933999999999,-1.1197968,1
2263,8.97995,1.4594573999999998,-1.030014,1
2264,9.012267999999999,1.4486847,-1.030014,1
2265,9.048172000000001,1.4642487,-1.0587463,1
2266,9.090073,1.437912,-1.1772614,1
2267,9.031417999999999,1.4666443,-1.2622528,1
2268,9.025436000000001,1.4259338,-1.1724701000000002,1
2269,9.025436000000001,1.4319305,-1.1569061,1
2270,9.064941000000001,1.4570618,-1.1389618000000001,1
2271,9.001495,1.4822083000000001,-1.1485290000000001,1
2272,8.976349,1.5121307,-1.1293792999999999,1
2273,8.9991,1.4594573999999998,-1.1748657,1
2274,9.032608,1.4786072000000001,-1.1377563,1
2275,9.049377,1.4654388,-1.1724701000000002,1
2276,9.056564,1.4414978,-1.1413574,1
2277,9.048172000000001,1.3876343,-1.0898743,1
2278,9.020645,1.3948212,-1.1162108999999998,1
2279,8.994308,1.4031982,-1.0755157,1
2280,9.013458,1.4055939,-1.0946655,1
2281,9.025436000000001,1.3289795,-1.0779113999999999,1
2282,9.080505,1.3289795,-1.1150208000000001,1
2283,9.0733185,1.3648833999999999,-1.0671386999999999,1
2284,9.069733,1.3636932,-1.0994568,1
2285,9.075714,1.3995971999999999,-1.0838927999999999,1
2286,9.042191,1.3960114,-1.104248,1
2287,9.039795,1.4235381999999999,-1.1952209999999999,1
2288,9.003891000000001,1.4654388,-1.1904297,1
2289,9.0182495,1.4798126,-1.2203674,1
2290,9.051772999999999,1.5133208999999999,-1.2466888,1
2291,9.041,1.5671997,-1.2454987,1
2292,8.9991,1.6054993,-1.2119751,1
2293,9.00029,1.6031036,-1.1497344999999999,1
2294,8.985930999999999,1.5181122,-1.1760712,1
2295,9.043396000000001,1.5683899,-1.1784668,1
2296,8.996704,1.5396576000000002,-1.1988068,1
2297,8.964386,1.5791626,-1.104248,1
2298,8.948822,1.5659943,-1.0671386999999999,1
2299,8.98114,1.5983276000000002,-1.1712798999999998,1
2300,8.926071,1.580368,-1.1784668,1
2301,8.941635,1.5731812,-1.109024,1
2302,9.006287,1.5923308999999999,-1.0719147,1
2303,9.062546000000001,1.6222687,-1.0874786,1
2304,9.06134,1.6294403,-1.0755157,1
2305,8.996704,1.5863495,-1.104248,1
2306,8.948822,1.4833983999999998,-1.1365662,1
2307,8.958389,1.4367065,-1.1712798999999998,1
2308,8.930862,1.4462891000000002,-1.2598572000000001,1
2309,8.989517,1.437912,-1.2454987,1
2310,9.039795,1.4403076000000001,-1.2694397,1
2311,9.121201,1.4690398999999998,-1.3664093000000002,1
2312,9.088882,1.4869843,-1.4178772,1
2313,9.085281,1.4822083000000001,-1.4418182,1
2314,9.037399,1.4846039,-1.4549866000000002,1
2315,9.0577545,1.4163666000000001,-1.4394226,1
2316,9.046982,1.4510802999999999,-1.3915405,1
2317,9.048172000000001,1.4666443,-1.3113403000000001,1
2318,9.025436000000001,1.5025482,-1.2873993000000001,1
2319,9.033813,1.5408629999999999,-1.2754211000000002,1
2320,9.029022,1.5588226,-1.258667,1
2321,9.021835000000001,1.5863495,-1.2107849,1
2322,9.050568,1.5635986000000002,-1.1413574,1
2323,9.069733,1.595932,-1.1461333999999999,1
2324,9.038605,1.556427,-1.1174164,1
2325,9.011063,1.5492401000000002,-1.1629028000000001,1
2326,8.975159,1.5456543,-1.1844482,1
2327,8.940445,1.5288848999999998,-1.2012024,1
2328,8.916504,1.5240936,-1.1593018,1
2329,8.910507,1.5935363999999999,-1.0874786,1
2330,8.951217999999999,1.6186676000000002,-0.98931885,1
2331,8.996704,1.5707855,-0.88157654,1
2332,9.063736,1.5360718,-0.8241272,1
2333,9.080505,1.4355163999999998,-0.94143677,1
2334,9.0577545,1.4151611000000002,-0.8851776,1
2335,9.06015,1.3529205,-0.88157654,1
2336,9.033813,1.279892,-0.89115906,1
2337,9.032608,1.2415923999999998,-0.9510193000000001,1
2338,9.019455,1.2954558999999999,-0.9222870000000001,1
2339,8.997894,1.3217926000000002,-1.0252379999999999,1
2340,9.050568,1.3636932,-1.0862885,1
2341,9.075714,1.374466,-1.0755157,1
2342,9.0577545,1.3756561,-1.1210022,1
2343,9.066132000000001,1.4798126,-1.1545258,1
2344,9.075714,1.501358,-1.2670441000000001,1
2345,9.082901,1.4798126,-1.2993622,1
2346,9.038605,1.492981,-1.2706451,1
2347,8.96199,1.5480499,-1.2239532,1
2348,8.994308,1.5408629999999999,-1.2550812,1
2349,8.995499,1.5420532,-1.2251433999999999,1
2350,9.012267999999999,1.5336761,-1.2155761999999999,1
2351,9.056564,1.5229034,-1.1449432,1
2352,9.044586,1.5384673999999998,-1.0814972,1
2353,9.026627000000001,1.5360718,-1.061142,1
2354,9.020645,1.5109406,-0.9797363000000001,1
2355,9.054169,1.4953766000000002,-0.94143677,1
2356,9.051772999999999,1.4558716,-1.0012969999999999,1
2357,9.125992,1.4247437,-1.0635376,1
2358,9.117614999999999,1.3469238000000001,-1.0324096999999999,1
2359,9.06015,1.4031982,-0.9761504999999999,1
2360,9.041,1.3445435,-0.9055175999999999,1
2361,9.066132000000001,1.2763062,-0.9462280000000001,1
2362,9.041,1.2571411,-0.8241272,1
2363,9.033813,1.2834778,-0.81333923,1
2364,9.111618,1.303833,-0.8468628,1
2365,9.094864,1.4008026000000002,-0.95339966,1
2366,9.067337,1.4235381999999999,-0.9222870000000001,1
2367,9.056564,1.3960114,-0.86242676,1
2368,9.024231,1.3553162,-0.81573486,1
2369,9.032608,1.4019928,-0.81095886,1
2370,9.023041000000001,1.437912,-0.8253174000000001,1
2371,9.042191,1.453476,-0.8001709,1
2372,9.021835000000001,1.4869843,-0.8073578,1
2373,9.002686,1.5276947,-0.8289032,1
2374,9.026627000000001,1.5360718,-0.7678528,1
2375,9.051772999999999,1.4666443,-0.73194885,1
2376,9.033813,1.4905853,-0.7810210999999999,1
2377,9.046982,1.477417,-0.8456726000000001,1
2378,9.033813,1.4869843,-0.89834595,1
2379,9.046982,1.4678345,-0.97016907,1
2380,9.038605,1.4008026000000002,-0.9629822,1
2381,9.045776,1.4283295,-0.9174957,1
2382,9.045776,1.4403076000000001,-0.8947449000000001,1
2383,9.023041000000001,1.4881897,-0.85165405,1
2384,9.033813,1.4462891000000002,-0.81933594,1
2385,9.094864,1.4127655000000001,-0.82173157,1
2386,9.102051,1.3864288,-0.8145446999999999,1
2387,9.094864,1.3995971999999999,-0.77264404,1
2388,9.063736,1.4079895,-0.80496216,1
2389,9.051772999999999,1.4008026000000002,-0.8325043,1
2390,9.069733,1.4486847,-0.8684082000000001,1
2391,9.069733,1.4606476000000002,-0.88397217,1
2392,9.062546000000001,1.492981,-0.8767853000000001,1
2393,9.067337,1.4905853,-0.89115906,1
2394,9.056564,1.501358,-0.86961365,1
2395,9.027832,1.4546661,-0.8504485999999999,1
2396,9.036209,1.4391022,-0.84207153,1
2397,9.096069,1.4558716,-0.8767853000000001,1
2398,9.051772999999999,1.4762115,-0.9809418,1
2399,9.06015,1.4450988999999999,-1.0228424,1
2400,9.026627000000001,1.4570618,-0.9438324,1
2401,9.052963,1.4211578,-0.9725647,1
2402,9.081696,1.4450988999999999,-0.9761504999999999,1
2403,9.020645,1.4187622,-0.9809418,1
2404,9.00029,1.4319305,-0.94862366,1
2405,8.995499,1.4391022,-0.98812866,1
2406,9.011063,1.4211578,-0.9761504999999999,1
2407,9.069733,1.4594573999999998,-1.0132599,1
2408,9.067337,1.4211578,-0.9438324,1
2409,9.074508999999999,1.4271393,-0.9941101000000001,1
2410,9.026627000000001,1.4343261999999999,-1.0000916,1
2411,9.048172000000001,1.4103698999999998,-1.006073,1
2412,9.027832,1.4043883999999998,-1.0096741,1
2413,9.085281,1.4008026000000002,-1.0491791000000001,1
2414,9.080505,1.4331207000000001,-0.9976959000000001,1
2415,9.029022,1.4462891000000002,-0.9917145,1
2416,9.009872,1.4462891000000002,-1.0000916,1
2417,9.032608,1.437912,-1.0527649,1
2418,9.026627000000001,1.4546661,-1.030014,1
2419,9.056564,1.4474791999999999,-1.0910796999999999,1
2420,9.054169,1.4247437,-1.0348053,1
2421,9.067337,1.4510802999999999,-1.0024872,1
2422,9.080505,1.4019928,-1.0024872,1
2423,9.051772999999999,1.4582671999999999,-1.0455780000000001,1
2424,9.011063,1.4450988999999999,-1.0048828,1
2425,9.020645,1.4750214,-0.9737549000000001,1
2426,9.050568,1.453476,-0.9905243,1
2427,9.092467999999998,1.4343261999999999,-0.98812866,1
2428,9.052963,1.422348,-0.9629822,1
2429,9.006287,1.4367065,-0.9462280000000001,1
2430,9.050568,1.4043883999999998,-0.9055175999999999,1
2431,9.080505,1.437912,-0.9761504999999999,1
2432,9.06015,1.4750214,-1.030014,1
2433,9.042191,1.4163666000000001,-0.9546051,1
2434,9.027832,1.3840332,-0.94262695,1
2435,9.055359,1.4331207000000001,-0.94981384,1
2436,9.044586,1.4319305,-0.94981384,1
2437,9.037399,1.4510802999999999,-0.9222870000000001,1
2438,9.012267999999999,1.4666443,-0.9354553,1
2439,9.051772999999999,1.4486847,-0.9557953000000001,1
2440,9.041,1.4666443,-0.9653778000000001,1
2441,9.043396000000001,1.4762115,-0.9450226,1
2442,9.072113,1.4259338,-0.9294585999999999,1
2443,9.067337,1.4247437,-0.9342499,1
2444,9.051772999999999,1.4355163999999998,-0.9294585999999999,1
2445,9.0182495,1.4319305,-0.90312195,1
2446,9.035003999999999,1.4714355,-0.9450226,1
2447,9.062546000000001,1.4259338,-0.9450226,1
2448,9.045776,1.4019928,-0.8971405000000001,1
2449,9.050568,1.4031982,-0.9151001,1
2450,9.054169,1.3780518,-0.9007415999999999,1
2451,9.043396000000001,1.4175568,-0.9055175999999999,1
2452,9.062546000000001,1.3864288,-0.93066406,1
2453,9.048172000000001,1.4414978,-0.93904114,1
2454,9.043396000000001,1.4235381999999999,-0.9246825999999999,1
2455,9.051772999999999,1.4115753,-0.9007415999999999,1
2456,9.054169,1.4199524,-0.9222870000000001,1
2457,9.062546000000001,1.4055939,-0.927063,1
2458,9.06015,1.4307251,-0.91270447,1
2459,9.062546000000001,1.4163666000000001,-0.9641876,1
2460,9.051772999999999,1.4187622,-0.9474181999999999,1
2461,9.024231,1.437912,-0.9115143,1
2462,9.06134,1.4822083000000001,-0.9043273999999999,1
2463,9.081696,1.4606476000000002,-0.93185425,1
2464,9.048172000000001,1.4091797,-0.89953613,1
2465,9.027832,1.4235381999999999,-0.83369446,1
2466,9.063736,1.4427032,-0.84088135,1
2467,9.099655,1.4606476000000002,-0.9629822,1
2468,9.049377,1.4331207000000001,-0.99290466,1
2469,9.042191,1.3529205,-0.90193176,1
2470,9.080505,1.3672790000000001,-0.84207153,1
2471,9.068527,1.3816528000000001,-0.8755951,1
2472,9.067337,1.4235381999999999,-0.906723,1
2473,9.045776,1.4570618,-0.8947449000000001,1
2474,9.015854,1.4343261999999999,-0.90312195,1
2475,9.013458,1.4438933999999999,-0.91389465,1
2476,9.0793,1.4833983999999998,-0.94981384,1
2477,9.064941000000001,1.4331207000000001,-0.85884094,1
2478,9.064941000000001,1.4151611000000002,-0.8935546999999998,1
2479,9.070922999999999,1.4283295,-0.9151001,1
2480,9.020645,1.4474791999999999,-0.9222870000000001,1
2481,9.043396000000001,1.4307251,-0.9258728,1
2482,9.075714,1.3720703,-0.90312195,1
2483,9.072113,1.4019928,-0.8767853000000001,1
2484,9.0972595,1.3995971999999999,-0.8684082000000001,1
2485,9.081696,1.4091797,-0.83010864,1
2486,9.048172000000001,1.4187622,-0.88397217,1
2487,9.051772999999999,1.4462891000000002,-0.8660126,1
2488,9.032608,1.4654388,-0.87319946,1
2489,9.009872,1.4678345,-0.9294585999999999,1
2490,9.036209,1.4714355,-0.9438324,1
2491,9.0793,1.4271393,-0.98573303,1
2492,9.07811,1.4199524,-0.97735596,1
2493,9.041,1.4259338,-0.98573303,1
2494,9.050568,1.4151611000000002,-0.94262695,1
2495,9.081696,1.406784,-0.9366455,1
2496,9.068527,1.4606476000000002,-0.93066406,1
2497,9.062546000000001,1.4582671999999999,-0.9474181999999999,1
2498,9.020645,1.4438933999999999,-0.93066406,1
2499,9.037399,1.4738159,-0.90911865,1
2500,9.070922999999999,1.4498749,-0.9151001,1
2501,9.025436000000001,1.4642487,-0.91030884,1
2502,9.027832,1.4367065,-0.83369446,1
2503,9.075714,1.4474791999999999,-0.84207153,1
2504,9.115219,1.4965667999999999,-0.9510193000000001,1
2505,9.030228,1.4666443,-0.93904114,1
2506,9.042191,1.4570618,-0.89834595,1
2507,9.06134,1.4319305,-0.88157654,1
2508,9.052963,1.4558716,-0.86361694,1
2509,9.026627000000001,1.4762115,-0.8791809000000002,1
2510,8.997894,1.4714355,-0.8767853000000001,1
2511,8.975159,1.4367065,-0.88157654,1
2512,9.042191,1.4486847,-0.9402313,1
2513,9.052963,1.4558716,-0.927063,1
2514,9.106842,1.4019928,-0.8947449000000001,1
2515,9.084091,1.4055939,-0.90312195,1
2516,9.055359,1.4606476000000002,-0.89834595,1
2517,9.031417999999999,1.461853,-0.9186859,1
2518,9.002686,1.4462891000000002,-0.88038635,1
2519,9.062546000000001,1.4630432,-0.94862366,1
2520,9.074508999999999,1.4151611000000002,-0.9438324,1
2521,9.069733,1.4055939,-0.9342499,1
2522,9.049377,1.422348,-0.9186859,1
2523,9.025436000000001,1.4414978,-0.8767853000000001,1
2524,9.042191,1.4510802999999999,-0.8887634,1
2525,9.064941000000001,1.4199524,-0.88157654,1
2526,9.037399,1.4486847,-0.9330596999999999,1
2527,9.048172000000001,1.4283295,-0.9522094999999999,1
2528,9.063736,1.4211578,-0.93785095,1
2529,9.063736,1.4427032,-0.9330596999999999,1
2530,9.019455,1.4510802999999999,-0.9330596999999999,1
2531,9.045776,1.4570618,-0.92108154,1
2532,9.0577545,1.4546661,-0.9055175999999999,1
2533,9.070922999999999,1.4558716,-0.90312195,1
2534,9.069733,1.4414978,-0.9234771999999999,1
2535,9.074508999999999,1.453476,-0.9246825999999999,1
2536,9.048172000000001,1.4881897,-0.90911865,1
2537,9.0733185,1.4570618,-0.9546051,1
2538,9.0793,1.4606476000000002,-0.98573303,1
2539,9.012267999999999,1.4510802999999999,-0.9174957,1
2540,9.017059,1.4798126,-0.8755951,1
2541,9.100845,1.5001526,-0.906723,1
2542,9.106842,1.4833983999999998,-1.006073,1
2543,9.036209,1.4510802999999999,-0.9725647,1
2544,9.067337,1.4570618,-0.8899536,1
2545,9.082901,1.4008026000000002,-0.8360901,1
2546,9.06134,1.4331207000000001,-0.7917938,1
2547,9.039795,1.4857941000000001,-0.8312988000000001,1
2548,9.021835000000001,1.4678345,-0.7858124,1
2549,9.015854,1.4295349,-0.7630615,1
2550,9.0577545,1.382843,-0.7570800999999999,1
2551,9.0972595,1.3684844999999999,-0.7786255,1
2552,9.072113,1.3636932,-0.6768799,1
2553,9.013458,1.3960114,-0.59547424,1
2554,9.019455,1.4750214,-0.6553345,1
2555,9.055359,1.501358,-0.79299927,1
2556,9.165497,1.5635986000000002,-1.0515747,1
2557,9.152328500000001,1.5121307,-1.1269836000000002,1
2558,9.096069,1.4127655000000001,-0.98573303,1
2559,9.025436000000001,1.4199524,-0.8600310999999999,1
2560,8.730942,1.5001526,-0.90193176,1
2561,9.357025,1.3972015,-0.6601104999999999,1
2562,9.171478,1.4019928,-0.89834595,1
2563,9.062546000000001,1.3732605,-0.90312195,1
2564,8.940445,1.4846039,-0.92826843,1
2565,9.464767,1.5169219999999999,-0.8863678,1
2566,9.0733185,1.7132416000000001,-1.1018523999999998,1
2567,8.948822,1.6689453,-1.040802,1
2568,8.928467,1.5923308999999999,-0.98931885,1
2569,8.679474,1.5935363999999999,-0.98931885,1
2570,9.431244,1.3936157,-0.64575195,1
2571,9.0793,1.5372620000000001,-1.0072784,1
2572,9.09845,1.5049438,-0.96777344,1
2573,9.109222,1.4642487,-0.8169403000000001,1
2574,9.026627000000001,1.4690398999999998,-0.6984253,1
2575,9.093674,1.4391022,-0.61701965,1
2576,9.029022,1.4127655000000001,-0.5523834,1
2577,8.915298,1.3876343,-0.5966644,1
2578,9.029022,1.2990416999999999,-0.41111755,1
2579,9.020645,1.3780518,-0.53800964,1
2580,9.135558999999999,1.3385468,-0.53082275,1
2581,9.164291,1.3158112,-0.56555176,1
2582,9.281616,1.2703094,-0.56674194,1
2583,9.257675,1.3062286,-0.60983276,1
2584,9.143951,1.3541107,-0.7163849,1
2585,9.080505,1.4403076000000001,-0.6337738,1
2586,9.032608,1.4343261999999999,-0.496109,1
2587,9.037399,1.5133208999999999,-0.42549133,1
2588,9.038605,1.5516357,-0.3871765,1
2589,9.066132000000001,1.5887451000000001,-0.37998962,1
2590,9.0577545,1.5612183000000002,-0.39915466,1
2591,9.108032000000001,1.477417,-0.34048462,1
2592,9.103241,1.4187622,-0.33091736,1
2593,9.063736,1.3995971999999999,-0.32373047,1
2594,9.094864,1.4043883999999998,-0.3620453,1
2595,9.115219,1.3768616000000002,-0.39196777,1
2596,9.093674,1.3361511000000001,-0.377594,1
2597,9.086487,1.2858733999999998,-0.2566986,1
2598,9.068527,1.2116547,-0.19085693,1
2599,9.023041000000001,1.2128601,-0.20162964,1
2600,9.041,1.1362457000000001,-0.19683838,1
2601,9.103241,1.0907440000000002,-0.22796631,1
2602,9.195419000000001,1.0572357,-0.25549316,1
2603,9.196625,0.97702026,-0.24832153,1
2604,9.164291,0.9901886000000001,-0.25909424,1
2605,9.131973,0.99497986,-0.24951172,1
2606,9.0972595,0.97702026,-0.26387024,1
2607,9.109222,1.0249176,-0.34169006,1
2608,9.170288000000001,1.0967407,-0.36802673,1
2609,9.165497,1.114685,-0.42428590000000005,1
2610,9.133179,1.1865233999999998,-0.4051361,1
2611,9.109222,1.2200316999999998,-0.372818,1
2612,9.118805,1.2834778,-0.372818,1
2613,9.129578,1.3948212,-0.5236510999999999,1
2614,9.118805,1.4283295,-0.6625061,1
2615,9.13916,1.4211578,-0.5631560999999999,1
2616,9.141556,1.4247437,-0.55477905,1
2617,9.13916,1.3948212,-0.5236510999999999,1
2618,9.048172000000001,1.3876343,-0.46499634,1
2619,9.051772999999999,1.4474791999999999,-0.51885986,1
2620,9.044586,1.4750214,-0.51646423,1
2621,9.074508999999999,1.4941711000000002,-0.5116729999999999,1
2622,9.0972595,1.4522705,-0.55955505,1
2623,9.117614999999999,1.4558716,-0.51885986,1
2624,9.105637,1.3732605,-0.47935486,1
2625,9.108032000000001,1.3948212,-0.49971008,1
2626,9.076903999999999,1.4187622,-0.50927734,1
2627,9.054169,1.4355163999999998,-0.52963257,1
2628,9.080505,1.4295349,-0.46020508,1
2629,9.102051,1.4319305,-0.46977234,1
2630,9.074508999999999,1.3756561,-0.45420837,1
2631,9.055359,1.3373566000000001,-0.41111755,1
2632,9.093674,1.3397522,-0.4063263,1
2633,9.104446000000001,1.2942505,-0.40753174,1
2634,9.09845,1.248764,-0.3368988,1
2635,9.094864,1.2080688,-0.33810425,1
2636,9.116408999999999,1.2284241000000002,-0.29620359999999996,1
2637,9.114014,1.248764,-0.333313,1
2638,9.149933,1.2463684,-0.32852173,1
2639,9.206192,1.2116547,-0.32731628,1
2640,9.157119999999999,1.2427826000000002,-0.39076233,1
2641,9.086487,1.2511596999999999,-0.36802673,1
2642,9.072113,1.2691193,-0.36442566,1
2643,9.075714,1.303833,-0.36682129999999996,1
2644,9.100845,1.3565063,-0.39915466,1
2645,9.100845,1.3505249,-0.44343567,1
2646,9.131973,1.3050385,-0.4278717000000001,1
2647,9.108032000000001,1.2739105,-0.41351318,1
2648,9.116408999999999,1.288269,-0.4051361,1
2649,9.106842,1.2810822,-0.42070007,1
2650,9.058945,1.3146057,-0.44343567,1
2651,9.049377,1.3265839,-0.44224548,1
2652,9.046982,1.2930603,-0.42428590000000005,1
2653,9.06134,1.2475739,-0.44104004,1
2654,9.069733,1.2391968,-0.39794922,1
2655,9.087677000000001,1.2463684,-0.38598633,1
2656,9.045776,1.2559508999999998,-0.35365295,1
2657,9.039795,1.1889191000000001,-0.32731628,1
2658,9.090073,1.1817322000000001,-0.36921692,1
2659,9.143951,1.2140503,-0.47216797,1
2660,9.13916,1.2810822,-0.5799103,1
2661,9.090073,1.3517151,-0.5811156999999999,1
2662,9.056564,1.4127655000000001,-0.6038513000000001,1
2663,9.027832,1.4199524,-0.6625061,1
2664,9.091277999999999,1.4367065,-0.75468445,1
2665,9.123596000000001,1.3708649,-0.7666626,1
2666,9.118805,1.3936157,-0.77983093,1
2667,9.092467999999998,1.3636932,-0.72595215,1
2668,9.06015,1.3421478,-0.7199707,1
2669,9.081696,1.3505249,-0.7415161,1
2670,9.124786,1.3337555,-0.77264404,1
2671,9.153519000000001,1.3576965,-0.84446716,1
2672,9.110428,1.3648833999999999,-0.8169403000000001,1
2673,9.088882,1.3816528000000001,-0.803772,1
2674,9.124786,1.398407,-0.8779906999999999,1
2675,9.104446000000001,1.4558716,-0.9474181999999999,1
2676,9.064941000000001,1.4414978,-0.94981384,1
2677,9.087677000000001,1.3936157,-0.89953613,1
2678,9.069733,1.3960114,-0.8564453000000002,1
2679,9.093674,1.3804473999999998,-0.88157654,1
2680,9.052963,1.3565063,-0.9510193000000001,1
2681,9.045776,1.3182068,-1.0096741,1
2682,9.067337,1.3241882,-0.9402313,1
2683,9.100845,1.2918701000000001,-0.96058655,1
2684,9.110428,1.2475739,-0.91030884,1
2685,9.131973,1.2296143,-0.82650757,1
2686,9.146347,1.2403870000000001,-0.86242676,1
2687,9.1128235,1.2415923999999998,-0.9043273999999999,1
2688,9.075714,1.2499695,-0.8779906999999999,1
2689,9.068527,1.1925048999999999,-0.92108154,1
2690,9.06134,1.1949005,-0.8456726000000001,1
2691,9.072113,1.2128601,-0.85523987,1
2692,9.084091,1.2128601,-0.8372803,1
2693,9.0972595,1.2236328,-0.76426697,1
2694,9.093674,1.224823,-0.788208,1
2695,9.09845,1.2619323999999998,-0.8289032,1
2696,9.136764999999999,1.2475739,-0.86361694,1
2697,9.084091,1.2571411,-0.927063,1
2698,9.064941000000001,1.2523651000000002,-0.8612366,1
2699,9.0733185,1.2559508999999998,-0.89115906,1
2700,9.094864,1.2511596999999999,-0.93066406,1
2701,9.124786,1.2403870000000001,-0.9629822,1
2702,9.102051,1.2475739,-0.9342499,1
2703,9.116408999999999,1.2511596999999999,-0.961792,1
2704,9.129578,1.2188416000000002,-0.9976959000000001,1
2705,9.080505,1.3217926000000002,-1.064743,1
2706,9.020645,1.2906647,-1.0168457,1
