,AccX[m/s^2],AccY[m/s^2],AccZ[m/s^2],label
0,9.184647,-0.8581238000000001,0.0138549805,1
1,9.184647,-0.8581238000000001,0.0138549805,1
2,9.372589,-0.8162384,0.12518310000000002,1
3,9.286407,-0.88327026,0.3598175,1
4,9.373795,-0.8246155000000001,0.31552124,1
5,9.092467999999998,-0.86531067,-0.16571045,1
6,9.273239,-0.80784607,-0.11543274,1
7,9.133179,-0.59477234,0.015045166,1
8,9.347458,-0.59477234,0.089263916,1
9,9.471954,-0.5217438,-0.40034485,1
10,9.239716,-0.6833496,-0.70440674,1
11,9.226547,-0.7767334,-0.43745422,1
12,8.975159,-0.7599640000000001,-0.58828735,1
13,9.224152,-0.8497466999999999,-0.5858916999999999,1
14,9.340271000000001,-0.80545044,-0.4278717000000001,1
15,7.143585000000001,1.1123047,-0.77622986,1
16,9.737701,-0.22605896,-0.5918884,1
17,10.410477,-0.45471190000000006,-0.372818,1
18,10.172255999999999,-0.13986206,-1.3209229,1
19,10.367386,-0.17817688,-1.3197173999999998,1
20,9.635956,-0.040512085,-1.0958557,1
21,9.467163000000001,-0.3768921,-0.93066406,1
22,9.267242,-0.621109,-0.82292175,1
23,9.124786,-0.65940857,-0.95339966,1
24,8.938049000000001,-0.8784790000000001,-0.3584442,1
25,9.260071,-0.8461609,-0.75109863,1
26,9.15831,-0.91319275,-0.9402313,1
27,9.044586,-0.9562988000000001,-1.1293792999999999,1
28,9.210983,-1.0891723999999998,-1.0683288999999998,1
29,9.483917,-1.4698486000000002,-1.0886841,1
30,9.12001,-1.3549194,-1.2095795,1
31,9.019455,-0.7491913,-1.3328857,1
32,8.756088,-0.54927063,-1.3388672,1
33,8.916504,-0.050079346,-2.3157042999999997,1
34,10.153107,-0.48822020000000005,-1.3664093000000002,1
35,9.036209,-0.38287354,-1.4537964,1
36,9.105637,0.39404297,-1.6884308000000001,1
37,9.485123,0.51493835,-1.8883362000000001,1
38,9.723343,0.09715271,-1.7315216,1
39,9.143951,-0.8425598,-1.1293792999999999,1
40,9.407303,-0.8174286000000001,-1.1952209999999999,1
41,9.257675,-0.015365601000000001,-1.0491791000000001,1
42,9.3103485,-0.0045928955,-0.93904114,1
43,9.3893585,0.08279419,-1.9302368000000003,1
44,9.127182000000001,-0.0010070800999999999,-1.3628082000000001,1
45,9.035003999999999,0.100753784,-1.1724701000000002,1
46,9.117614999999999,-0.035720825,-1.5986481000000001,1
47,8.566939999999999,-0.4487152,-1.9446106,1
48,9.127182000000001,-0.7587738,-2.0619202000000003,1
49,10.370972,-1.4566803,-2.5359802000000005,1
50,8.526245,0.16539001,-1.4047089,1
51,8.829102,0.76753235,-1.5363921999999999,1
52,8.460403,0.75675964,-0.6218109,1
53,8.003113,-0.19134521,-1.0755157,1
54,8.967972,0.33178709999999995,-1.1832428,1
55,9.985503999999999,-0.14106749999999998,-1.2203674,1
56,9.322311000000001,-0.066848755,-1.8296814,1
57,8.997894,0.6717681999999999,-1.5782928,1
58,8.893753,1.7695006999999998,-0.85523987,1
59,8.507095,1.5372620000000001,-1.9158783,1
60,7.9264984,1.4977722,-1.1832428,1
61,8.140778,1.1206818,-1.1688843,1
62,8.837494,0.7651366999999999,-1.0455780000000001,1
63,8.880585,0.02293396,-1.6333618,1
64,8.557373,0.43115234,-2.1313477,1
65,9.291183,0.56521606,-2.13974,1
66,9.169083,-0.39006042,-2.270218,1
67,8.469971000000001,-1.9642487000000002,-1.6728668000000002,1
68,10.270416,-3.2295837000000005,-3.468521,1
69,11.396896,-3.3828125,-3.2985230000000003,1
70,7.1723175,-0.45829773,-0.67567444,1
71,7.5709534,-0.10874939,-0.5499878,1
72,8.502303999999999,-0.085998535,-2.7239227,1
73,8.462799,-0.08001709,-1.7626495,1
74,9.115219,-0.33021545,-3.168045,1
75,8.455612,-0.625885,-2.3923187,1
76,7.4596252000000005,-0.7599640000000001,-2.5503387,1
77,7.6583404999999996,-1.1059265,-2.7622223,1
78,7.3087919999999995,-1.0460815,-3.0555115,1
79,7.313583400000001,-0.77552795,-3.3428192,1
80,7.0107117,-0.48942566,-3.8228607000000006,1
81,6.308014,-0.33380127,-3.9736937999999995,1
82,6.130844000000001,-0.34936523,-3.4768982000000004,1
83,5.9345245,-0.5744170999999999,-2.9956665,1
84,5.766922,-1.3297881999999999,-3.3200684000000003,1
85,5.540664700000001,-1.9486846999999998,-3.7115326,1
86,5.708267,-2.2335967999999995,-4.2155,1
87,6.347519,-1.8948212,-4.8990480000000005,1
88,7.1531677,-0.8892517,-5.2521973,1
89,7.114853,-0.06803894,-5.16481,1
90,7.022689999999999,0.5520477,-5.3000793,1
91,6.419341999999999,0.512558,-5.096573,1
92,7.086136,-0.3002777,-5.377884,1
93,7.312378,-1.4961853,-5.5335083,1
94,7.312378,-2.5652008,-5.771744,1
95,7.6380005,-3.0572052000000003,-5.345566000000001,1
96,7.4560394,-2.399994,-5.116928,1
97,6.6384125,-0.7503966999999999,-4.8942566,1
98,6.276886,-0.085998535,-5.349167,1
99,6.201477,0.08279419,-6.246994,1
100,6.230209400000001,-0.13388062,-6.746169999999999,1
101,6.246963500000001,-0.28471375,-6.985595699999999,1
102,6.704254,-0.25837708,-7.214248700000001,1
103,7.4213104,-0.29309082,-7.357895,1
104,7.7421417,-0.18536377,-7.718216,1
105,7.339919999999999,0.4191742,-7.975600999999999,1
106,7.442871,0.17855835,-7.9408875,1
107,6.966415400000001,-0.7671509,-8.780045,1
108,6.9951476999999995,-0.82341003,-8.563369999999999,1
109,7.185486,-0.22845459,-7.931305,1
110,7.351883,-0.26197815,-7.495559700000001,1
111,7.521881,-1.0508575,-7.7912445,1
112,7.8606567,-0.49061584,-8.187485,1
113,7.700241,0.6681670999999999,-7.699066,1
114,8.048599000000001,0.9674530000000001,-6.7126617,1
115,8.924881,0.33776855,-6.644424400000001,1
116,10.455963,0.045684814000000004,-6.525909400000001,1
117,12.495834,0.13786316,-6.267334,1
118,13.625885,0.07202148400000001,-6.31044,1
119,12.50061,-0.14225769,-6.925735499999999,1
120,11.673416,-0.8305969000000001,-6.444504,1
121,11.848189999999999,-0.65582275,-5.1851654,1
122,10.585251,0.115112305,-3.9605254999999997,1
123,8.954803,0.6957091999999999,-3.4002837999999995,1
124,7.2405550000000005,0.58078,-2.3540192,1
125,5.702286,0.43713379999999996,-0.69721985,1
126,5.889023,0.36410522,1.2169341999999999,1
127,6.746155,0.37368774,1.2624207,1
128,7.950439500000001,0.20610046,-0.25909424,1
129,9.064941000000001,0.08758545,-1.4825287,1
130,9.640747,0.05166626,-1.8584136999999998,1
131,10.415268,-0.090789795,-2.3863373,1
132,10.915649,-0.2966919,-2.3336639999999997,1
133,10.625961,-0.53730774,-1.9134827,1
134,9.066132000000001,-0.48223877,-1.447815,1
135,8.320343,-0.42597959999999996,-0.9725647,1
136,8.255692,-0.41281128,-0.7199707,1
137,8.319138,-0.23443604,-0.7283478,1
138,8.34787,-0.093185425,-0.7080078000000001,1
139,8.577713000000001,-0.17459106,-0.52723694,1
140,9.039795,-0.38887024,-0.48773193,1
141,9.589264,-0.59954834,-0.377594,1
142,9.73053,-1.0113524999999999,-0.45541382,1
143,9.628769,-1.1538086,-0.39794922,1
144,9.553360000000001,-0.9838256999999999,-0.14656067,1
145,9.382172,-0.64624023,-0.04600525,1
146,9.110428,-0.66659546,-0.2566986,1
147,9.251678,-0.7108916999999999,-0.5284424,1
148,9.852631,-0.5672302,-0.66729736,1
149,9.981917999999999,-0.37449646,-0.70321655,1
150,9.359421000000001,-0.14944458,-0.7690581999999999,1
151,9.025436000000001,-0.24162292,-1.0204468,1
152,8.977554,-0.26914978,-1.3855591,1
153,8.837494,-0.109939575,-1.6620941000000002,1
154,9.345061999999999,-0.05368042,-1.5196381,1
155,9.491104,0.088775635,-1.6656799,1
156,9.628769,-0.038116455,-1.6872253000000001,1
157,9.366608,0.14263916,-1.6884308000000001,1
158,9.114014,-0.5636444,-1.5567474,1
159,8.849457000000001,-1.6972961,-1.337677,1
160,9.538986,-1.6996918,-1.2311401000000002,1
161,9.6622925,-1.0963593,-1.6046295,1
162,9.448013000000001,-0.47865295,-2.0463562,1
163,9.041,-0.3984375,-2.270218,1
164,9.464767,-0.63067627,-2.326477,1
165,9.403717,-1.0017853,-2.7789917,1
166,8.831497,-0.37091064,-2.986084,1
167,8.622009,-0.5504760999999999,-2.6784362999999995,1
168,8.693832,-0.6689911000000001,-2.7837677000000003,1
169,9.152328500000001,-0.29908752,-2.7514496,1
170,8.845871,-0.021362305,-2.3791504,1
171,9.240905999999999,-0.35176086,-1.2299347,1
172,9.480331,-0.54927063,-0.57032776,1
173,9.340271000000001,-0.5097656,-0.38598633,1
174,9.108032000000001,-0.21170044,-0.25430298,1
175,9.085281,-0.03453064,-0.1381836,1
176,8.948822,-0.035720825,-0.15614319,1
177,8.993117999999999,-0.011779785,-0.7475128000000001,1
178,9.151123,-0.07522583,-0.8277129999999999,1
179,9.374985,-0.33499146,-1.0108643,1
180,9.398926,-0.49899292,-1.1976166000000001,1
181,9.400131,-0.15663147,-1.3053589,1
182,9.020645,0.17736816,-1.5328064,1
183,8.698624,-0.17219543,-1.9805145,1
184,8.697433,-0.46308900000000003,-2.7753906,1
185,8.782425,-0.48703003,-2.8747559,1
186,9.161896,-0.44752502,-2.412674,1
187,9.091277999999999,-0.6318816999999999,-2.0092468,1
188,9.561736999999999,-1.0269165,-2.5539245999999998,1
189,10.246475,-0.64863586,-2.3252869,1
190,9.699402000000001,0.20610046,-1.4190826,1
191,9.644333,0.026535034,-1.5064697,1
192,10.470336999999999,-0.012969971,-1.5723114,1
193,10.597228999999999,0.04808044400000001,-1.2502898999999998,1
194,10.360199,-0.15303039999999998,-0.34288025,1
195,9.185837,-0.739624,0.7368927,1
196,8.717773,-1.0724182,1.4790955,1
197,7.8391113,-1.6182861000000002,1.9447784,1
198,7.493149000000001,-2.0851593,1.6514893,1
199,6.948456,-2.2252197,1.9495697,1
200,7.299209599999999,-1.8541107,2.5086060000000003,1
201,8.259293,-1.0293120999999998,2.015396,1
202,9.464767,-0.32661438,1.4647369,1
203,10.598419,-0.050079346,0.8111267,1
204,11.152679,-0.51934814,-0.08670044,1
205,10.649902,-1.0161438,-0.67448425,1
206,9.547363,-0.88327026,0.16229248,1
207,9.052963,-0.720459,0.7117614999999999,1
208,8.450821000000001,-0.40322876,0.92245483,1
209,8.285629,0.0013885498,0.80992126,1
210,8.286819,0.14863586,0.63993835,1
211,8.548981,0.03970337,0.8709716999999999,1
212,9.250488,-0.33859253,1.1271514999999999,1
213,9.850235000000001,-0.5959625,1.2947540000000002,1
214,9.89093,-0.62350464,1.0804749,1
215,9.568924,-0.38287354,0.84942627,1
216,9.133179,-0.20570374,0.6818390000000001,1
217,8.926071,-0.24401855,0.7931670999999999,1
218,8.878189,-0.41639709999999996,0.9499816999999999,1
219,9.008666999999999,-0.5133667000000001,1.0074463,1
220,8.934448,-0.46667479999999995,1.2241211,1
221,8.969161999999999,-0.39006042,1.3869323999999998,1
222,9.25528,-0.30387878,1.1139832,1
223,9.464767,-0.121917725,1.1020203000000002,1
224,9.637146000000001,-0.15065002,1.3222809,1
225,9.398926,-0.19374084,1.339035,1
226,9.106842,-0.26316833,1.2660216999999998,1
227,9.157119999999999,-0.368515,1.3019257,1
228,9.202606,-0.67855835,1.2456665,1
229,9.276825,-0.9263610999999999,1.1977844,1
230,9.284011999999999,-0.9945984,1.20018,1
231,9.108032000000001,-0.7623595999999999,1.2037659,1
232,9.020645,-0.49182129999999996,1.2384796,1
233,9.080505,-0.40083313,1.3139038,1
234,9.236130000000001,-0.36372375,1.3462219,1
235,9.31633,-0.40083313,1.4276276,1
236,9.331894,-0.45948792,1.4515686,1
237,9.173874,-0.5780029000000001,1.5102233999999999,1
238,9.129578,-0.7503966999999999,1.6119843,1
239,9.149933,-0.87249756,1.6323242,1
240,9.121201,-0.7815094,1.5784607,1
241,9.099655,-0.6941223000000001,1.5652924,1
242,9.07811,-0.6079406999999999,1.6730346999999999,1
243,9.014664,-0.6043396,1.7484436,1
244,8.965575999999999,-0.6546173000000001,1.6718292000000001,1
245,9.082901,-0.8066559,1.7041626,1
246,9.193024000000001,-0.8856659,1.7304993000000002,1
247,9.151123,-0.9263610999999999,1.7460631999999998,1
248,9.07811,-0.8964386000000001,1.7472534,1
249,9.06015,-0.8712921,1.528183,1
250,9.2313385,-0.9263610999999999,1.3055267,1
251,9.446808,-0.86172485,1.5641022,1
252,9.293579,-0.77911377,1.7376709,1
253,8.917694000000001,-0.6821594,1.7161255000000002,1
254,8.8003845,-0.5432892,1.5808563,1
255,8.914108,-0.4044342,1.5102233999999999,1
256,9.152328500000001,-0.40322876,1.5245971999999999,1
257,9.203796,-0.3002777,1.5664978,1
258,9.130783000000001,-0.31584167,1.5820465,1
259,9.134369,-0.36732483,1.5317688,1
260,9.127182000000001,-0.35176086,1.5090332,1
261,9.0733185,-0.33499146,1.5688782,1
262,9.003891000000001,-0.25,1.6024017,1
263,9.051772999999999,-0.289505,1.4994507,1
264,9.137955,-0.41041565,1.370163,1
265,9.185837,-0.53730774,1.3210906999999998,1
266,9.209793,-0.54089355,1.4204407,1
267,9.232529,-0.59954834,1.4060822,1
268,9.216965,-0.6522217,1.3426361,1
269,9.13916,-0.77552795,1.2169341999999999,1
270,9.141556,-0.82221985,1.20018,1
271,9.178664999999999,-0.87968445,1.2025757,1
272,9.274429,-0.88446045,1.2241211,1
273,9.25647,-0.9143982,1.1738434,1
274,9.218169999999999,-0.89164734,1.1331328999999999,1
275,9.191833500000001,-0.95269775,1.1080017,1
276,9.261261,-0.9371338,1.0900421,1
277,9.309142999999999,-0.94911194,1.1199646,1
278,9.239716,-0.9646759,1.112793,1
279,9.226547,-0.93473816,1.0960236,1
280,9.222961,-0.96707153,1.1678619,1
281,9.214569000000001,-0.9730530000000001,1.2169341999999999,1
282,9.142746,-0.9766388,1.2372893999999999,1
283,9.166687,-1.0149536,1.2720032,1
284,9.185837,-1.0257263,1.2983398000000002,1
285,9.170288000000001,-1.0173492,1.3186951,1
286,9.194229,-0.96946716,1.3294678,1
287,9.213379,-0.8485565,1.3186951,1
288,9.17627,-0.8210144,1.2648163000000001,1
289,9.15831,-0.80784607,1.3007355,1
290,9.164291,-0.7803191999999999,1.2516479999999999,1
291,9.175064,-0.7444,1.1726378999999998,1
292,9.209793,-0.7767334,1.1714478000000002,1
293,9.21936,-0.78271484,1.1714478000000002,1
294,9.227737,-0.80426025,1.160675,1
295,9.203796,-0.8282013,1.1918030000000002,1
296,9.189438,-0.81144714,1.2612305,1
297,9.191833500000001,-0.76116943,1.1989746000000001,1
298,9.209793,-0.7491913,1.1319427,1
299,9.179855,-0.6905365,1.1379242,1
300,9.163101,-0.63427734,1.2169341999999999,1
301,9.149933,-0.66300964,1.2492523000000002,1
302,9.159514999999999,-0.6977234,1.2576447,1
303,9.183456,-0.7551727,1.2420806999999998,1
304,9.189438,-0.7013092,1.1858063,1
305,9.230133,-0.7264556999999999,1.2229156,1
306,9.182250999999999,-0.6977234,1.2672119,1
307,9.215775,-0.7779235999999999,1.2372893999999999,1
308,9.143951,-0.77911377,1.2265167,1
309,9.146347,-0.80426025,1.2743988000000002,1
310,9.179855,-0.76834106,1.2672119,1
311,9.187042,-0.7491913,1.270813,1
312,9.182250999999999,-0.76834106,1.2755889999999999,1
313,9.17746,-0.7815094,1.3270721,1
314,9.17746,-0.7587738,1.3234863000000001,1
315,9.152328500000001,-0.79467773,1.3210906999999998,1
316,9.127182000000001,-0.84376526,1.3510132,1
317,9.148727000000001,-0.80784607,1.3641815000000002,1
318,9.165497,-0.8018645999999999,1.3629761,1
319,9.155914,-0.83299255,1.3246765,1
320,9.17746,-0.85095215,1.3677673000000001,1
321,9.17627,-0.8018645999999999,1.3366547,1
322,9.135558999999999,-0.8270110999999999,1.3486176,1
323,9.181061,-0.79348755,1.3210906999999998,1
324,9.159514999999999,-0.8581238000000001,1.330658,1
325,9.103241,-0.8353881999999999,1.3545989999999999,1
326,9.15831,-0.83299255,1.3797455,1
327,9.209793,-0.8868560999999999,1.3055267,1
328,9.191833500000001,-0.9000244000000001,1.2528534,1
329,9.200211,-0.83299255,1.3162994,1
330,9.201400999999999,-0.7922821,1.334259,1
331,9.167892,-0.76475525,1.3162994,1
332,9.155914,-0.79467773,1.310318,1
333,9.128387,-0.8784790000000001,1.3282623,1
334,9.147537,-0.8976288,1.2851715,1
335,9.128387,-0.8988341999999999,1.3486176,1
336,9.194229,-0.8892517,1.315094,1
337,9.189438,-0.8485565,1.3354492,1
338,9.191833500000001,-0.8688965,1.3294678,1
339,9.183456,-0.8665161,1.3091125,1
340,9.141556,-0.8677063,1.3115082,1
341,9.149933,-0.8210144,1.3558044,1
342,9.143951,-0.8820648000000001,1.3522034,1
343,9.160706,-0.8641205,1.334259,1
344,9.183456,-0.9371338,1.2875671,1
345,9.215775,-0.89045715,1.339035,1
346,9.164291,-0.8665161,1.310318,1
347,9.143951,-0.8665161,1.3402405000000002,1
348,9.117614999999999,-0.9048156999999999,1.3294678,1
349,9.194229,-0.9251709000000001,1.3258667,1
350,9.182250999999999,-0.9215698,1.3091125,1
351,9.169083,-0.8198242,1.3569946000000002,1
352,9.172684,-0.8018645999999999,1.413269,1
353,9.171478,-0.7922821,1.2839813,1
354,9.149933,-0.8605193999999999,1.2899628,1
355,9.099655,-0.87968445,1.3582001,1
356,9.17627,-0.88446045,1.4012909,1
357,9.251678,-0.88446045,1.3186951,1
358,9.157119999999999,-0.91200256,1.2384796,1
359,9.143951,-0.95150757,1.2995299999999999,1
360,9.183456,-0.9371338,1.3450316999999998,1
361,9.169083,-0.917984,1.4240416999999999,1
362,9.111618,-0.9060210999999999,1.4120636,1
363,9.173874,-0.88446045,1.3761444,1
364,9.160706,-0.85095215,1.3270721,1
365,9.187042,-0.86172485,1.3162994,1
366,9.208588,-0.8605193999999999,1.3043213,1
367,9.221756,-0.8353881999999999,1.3486176,1
368,9.184647,-0.8413695999999999,1.2923584,1
369,9.185837,-0.9191742,1.2779846000000001,1
370,9.169083,-0.9251709000000001,1.2732086,1
371,9.165497,-0.92277527,1.2732086,1
372,9.142746,-0.9431305,1.3043213,1
373,9.148727000000001,-0.9371338,1.3210906999999998,1
374,9.142746,-0.9191742,1.3881226,1
375,9.167892,-0.8868560999999999,1.3929138,1
376,9.169083,-0.8425598,1.3653716999999999,1
377,9.13916,-0.838974,1.3677673000000001,1
378,9.163101,-0.8497466999999999,1.3019257,1
379,9.17627,-0.8701019,1.3677673000000001,1
380,9.166687,-0.8581238000000001,1.3545989999999999,1
381,9.170288000000001,-0.8305969000000001,1.3462219,1
382,9.14035,-0.86531067,1.3869323999999998,1
383,9.181061,-0.82221985,1.4264374,1
384,9.165497,-0.8102417,1.3593903,1
385,9.13916,-0.8485565,1.3977051,1
386,9.136764999999999,-0.8317870999999999,1.4084778,1
387,9.195419000000001,-0.80307007,1.4192505,1
388,9.159514999999999,-0.82580566,1.2863617,1
389,9.12001,-0.8581238000000001,1.3031311,1
390,9.163101,-0.8569336,1.3641815000000002,1
391,9.17627,-0.8186188,1.4467773000000002,1
392,9.147537,-0.80307007,1.4156494,1
393,9.153519000000001,-0.78630066,1.3761444,1
394,9.135558999999999,-0.79348755,1.4156494,1
395,9.175064,-0.77552795,1.3845367,1
396,9.175064,-0.7515869000000001,1.3689728,1
397,9.207397,-0.7958831999999999,1.3450316999999998,1
398,9.159514999999999,-0.7851104999999999,1.3270721,1
399,9.185837,-0.76475525,1.3988953000000002,1
400,9.169083,-0.7515869000000001,1.3893127,1
401,9.128387,-0.7503966999999999,1.3988953000000002,1
402,9.121201,-0.7851104999999999,1.4683228000000002,1
403,9.17746,-0.82580566,1.4144591999999998,1
404,9.220566,-0.79467773,1.4372101000000002,1
405,9.207397,-0.79707336,1.4036865,1
406,9.127182000000001,-0.7480011,1.4252319,1
407,9.1128235,-0.7623595999999999,1.4120636,1
408,9.167892,-0.76116943,1.418045,1
409,9.21936,-0.76116943,1.4252319,1
410,9.146347,-0.7803191999999999,1.4204407,1
411,9.115219,-0.77433777,1.4324188,1
412,9.17627,-0.80545044,1.4419861,1
413,9.165497,-0.8198242,1.4372101000000002,1
414,9.181061,-0.77911377,1.4659271,1
415,9.161896,-0.7024994000000001,1.4120636,1
416,9.166687,-0.76356506,1.4024811000000001,1
417,9.118805,-0.77552795,1.4120636,1
418,9.163101,-0.76834106,1.4850922,1
419,9.200211,-0.75756836,1.45755,1
420,9.169083,-0.73602295,1.4001006999999999,1
421,9.183456,-0.7312316999999999,1.3953094,1
422,9.164291,-0.67378235,1.3809357,1
423,9.128387,-0.68574524,1.4599457,1
424,9.100845,-0.64624023,1.4563598999999998,1
425,9.15831,-0.64505005,1.4683228000000002,1
426,9.170288000000001,-0.5780029000000001,1.4204407,1
427,9.146347,-0.5456848000000001,1.4503784,1
428,9.114014,-0.5540619000000001,1.4862823,1
429,9.157119999999999,-0.56604004,1.5102233999999999,1
430,9.143951,-0.5899810999999999,1.4635468,1
431,9.141556,-0.6222991999999999,1.5054321000000002,1
432,9.159514999999999,-0.63067627,1.5198059,1
433,9.130783000000001,-0.6534270999999999,1.4707184,1
434,9.091277999999999,-0.6498413000000001,1.4384003,1
435,9.082901,-0.68574524,1.5126190000000002,1
436,9.13916,-0.7264556999999999,1.5209961,1
437,9.154724,-0.7815094,1.543747,1
438,9.124786,-0.799469,1.5473328000000002,1
439,9.118805,-0.799469,1.5844421,1
440,9.14035,-0.76356506,1.5796661,1
441,9.142746,-0.72525024,1.528183,1
442,9.111618,-0.73602295,1.528183,1
443,9.123596000000001,-0.7779235999999999,1.4611511000000001,1
444,9.15831,-0.8090515,1.4216461,1
445,9.197815,-0.8760834000000001,1.373764,1
446,9.197815,-0.8473511,1.339035,1
447,9.214569000000001,-0.75756836,1.3510132,1
448,9.178664999999999,-0.7084961,1.3749542,1
449,9.220566,-0.6761626999999999,1.339035,1
450,9.164291,-0.6869506999999999,1.3677673000000001,1
451,9.12001,-0.6498413000000001,1.449173,1
452,9.175064,-0.6821594,1.473114,1
453,9.195419000000001,-0.6534270999999999,1.4108733999999998,1
454,9.111618,-0.6821594,1.4060822,1
455,9.127182000000001,-0.6366729999999999,1.5688782,1
456,9.154724,-0.65940857,1.5844421,1
457,9.125992,-0.69651794,1.5772705,1
458,9.143951,-0.7096863,1.5389556999999998,1
459,9.151123,-0.69532776,1.5198059,1
460,9.147537,-0.6498413000000001,1.4910736,1
461,9.160706,-0.6043396,1.5473328000000002,1
462,9.164291,-0.5935669,1.4922638000000001,1
463,9.182250999999999,-0.51934814,1.449173,1
464,9.157119999999999,-0.47505188,1.5114288,1
465,9.149933,-0.4834442,1.4515686,1
466,9.133179,-0.52653503,1.4024811000000001,1
467,9.128387,-0.6151123000000001,1.4360046,1
468,9.17627,-0.6833496,1.4348145,1
469,9.15831,-0.7300415,1.4276276,1
470,9.169083,-0.7731323,1.4455871999999999,1
471,9.149933,-0.74560547,1.4862823,1
472,9.146347,-0.75756836,1.449173,1
473,9.116408999999999,-0.76475525,1.5126190000000002,1
474,9.14035,-0.75398254,1.528183,1
475,9.155914,-0.7192688,1.5497284,1
476,9.152328500000001,-0.66300964,1.5449371,1
477,9.131973,-0.6546173000000001,1.5557098,1
478,9.0972595,-0.6833496,1.5269928,1
479,9.093674,-0.74320984,1.5018463,1
480,9.090073,-0.7300415,1.5581055,1
481,9.169083,-0.6941223000000001,1.5425415,1
482,9.175064,-0.69651794,1.4623413,1
483,9.183456,-0.7048949999999999,1.45755,1
484,9.124786,-0.7372284,1.4695281999999998,1
485,9.193024000000001,-0.739624,1.4767151,1
486,9.214569000000001,-0.7300415,1.4324188,1
487,9.088882,-0.7048949999999999,1.3665771,1
488,9.131973,-0.6294860999999999,1.4120636,1
489,9.201400999999999,-0.60913086,1.45755,1
490,9.209793,-0.59117126,1.4168549,1
491,9.23851,-0.59835815,1.4288177,1
492,9.17627,-0.6043396,1.4587555,1
493,9.081696,-0.6366729999999999,1.4300232,1
494,9.085281,-0.62350464,1.449173,1
495,9.133179,-0.64505005,1.4372101000000002,1
496,9.181061,-0.6821594,1.4539642,1
497,9.199005,-0.68574524,1.4431915000000002,1
498,9.232529,-0.70729065,1.418045,1
499,9.197815,-0.7767334,1.3988953000000002,1
500,9.136764999999999,-0.76834106,1.3545989999999999,1
501,9.152328500000001,-0.7276459,1.3797455,1
502,9.17627,-0.70370483,1.3809357,1
503,9.165497,-0.7108916999999999,1.3677673000000001,1
504,9.163101,-0.6821594,1.4024811000000001,1
505,9.152328500000001,-0.6438446,1.4539642,1
506,9.146347,-0.59954834,1.4503784,1
507,9.149933,-0.6067352,1.4563598999999998,1
508,9.142746,-0.56604004,1.4982605,1
509,9.109222,-0.581604,1.5641022,1
510,9.133179,-0.5444945999999999,1.5186005,1
511,9.163101,-0.5899810999999999,1.3857268999999999,1
512,9.116408999999999,-0.6115265000000001,1.3953094,1
513,9.157119999999999,-0.59117126,1.3593903,1
514,9.166687,-0.65940857,1.3617858999999999,1
515,9.215775,-0.6689911000000001,1.2516479999999999,1
516,9.200211,-0.6414489999999999,1.2061614999999999,1
517,9.183456,-0.63427734,1.2720032,1
518,9.226547,-0.6330719,1.231308,1
519,9.279221000000001,-0.64863586,1.1918030000000002,1
520,9.164291,-0.59954834,1.1199646,1
521,9.128387,-0.63786316,1.2289124,1
522,9.169083,-0.6534270999999999,1.3414306999999999,1
523,9.193024000000001,-0.68455505,1.310318,1
524,9.129578,-0.71687317,1.3366547,1
525,9.110428,-0.72883606,1.3222809,1
526,9.185837,-0.7228545999999999,1.2983398000000002,1
527,9.171478,-0.6713866999999999,1.330658,1
528,9.146347,-0.6366729999999999,1.3617858999999999,1
529,9.208588,-0.62828064,1.3318633999999998,1
530,9.228943,-0.6761626999999999,1.3929138,1
531,9.188232000000001,-0.68574524,1.2815857,1
532,9.109222,-0.69651794,1.2600403,1
533,9.171478,-0.680954,1.3174896,1
534,9.25528,-0.6330719,1.3222809,1
535,9.202606,-0.56243896,1.291153,1
536,9.17746,-0.56843567,1.3366547,1
537,9.136764999999999,-0.6354675,1.3426361,1
538,9.183456,-0.62709045,1.3139038,1
539,9.210983,-0.62709045,1.2743988000000002,1
540,9.165497,-0.59477234,1.2337036,1
541,9.164291,-0.6246948,1.2540436000000001,1
542,9.212173,-0.6402588,1.2504578000000002,1
543,9.207397,-0.63786316,1.3007355,1
544,9.181061,-0.65582275,1.3091125,1
545,9.172684,-0.7096863,1.330658,1
546,9.205002,-0.7084961,1.3749542,1
547,9.201400999999999,-0.67855835,1.3186951,1
548,9.175064,-0.66778564,1.2935486,1
549,9.080505,-0.7503966999999999,1.3857268999999999,1
550,9.121201,-0.75398254,1.4348145,1
551,9.248092999999999,-0.78990173,1.4683228000000002,1
552,9.252884,-0.81503296,1.3510132,1
553,9.195419000000001,-0.6833496,1.2492523000000002,1
554,9.092467999999998,-0.6618042,1.2660216999999998,1
555,9.136764999999999,-0.68574524,1.3761444,1
556,9.187042,-0.7336273,1.3402405000000002,1
557,9.184647,-0.74560547,1.2720032,1
558,9.188232000000001,-0.7527771,1.2720032,1
559,9.187042,-0.7276459,1.2755889999999999,1
560,9.216965,-0.7384185999999999,1.3055267,1
561,9.260071,-0.7491913,1.3126984,1
562,9.179855,-0.73602295,1.339035,1
563,9.091277999999999,-0.67497253,1.3593903,1
564,9.127182000000001,-0.6534270999999999,1.4001006999999999,1
565,9.165497,-0.6701813,1.3366547,1
566,9.185837,-0.67736816,1.3749542,1
567,9.214569000000001,-0.6641998,1.3474274,1
568,9.134369,-0.64863586,1.334259,1
569,9.14035,-0.6761626999999999,1.3545989999999999,1
570,9.220566,-0.70610046,1.3474274,1
571,9.251678,-0.6689911000000001,1.3222809,1
572,9.167892,-0.67378235,1.3294678,1
573,9.146347,-0.6713866999999999,1.315094,1
574,9.143951,-0.7491913,1.3725586,1
575,9.185837,-0.80545044,1.3569946000000002,1
576,9.23851,-0.7599640000000001,1.373764,1
577,9.208588,-0.7731323,1.4012909,1
578,9.135558999999999,-0.7276459,1.5018463,1
579,9.063736,-0.7300415,1.5293732,1
580,9.117614999999999,-0.8174286000000001,1.5054321000000002,1
581,9.13916,-0.78271484,1.5222015,1
582,9.123596000000001,-0.79467773,1.5617065,1
583,9.07811,-0.83299255,1.6191559,1
584,9.143951,-0.8677063,1.6107788,1
585,9.221756,-0.84017944,1.5892334,1
586,9.146347,-0.8102417,1.504242,1
587,9.068527,-0.76116943,1.5269928,1
588,9.129578,-0.76834106,1.6371155000000002,1
589,9.165497,-0.8317870999999999,1.607193,1
590,9.183456,-0.8377838,1.5473328000000002,1
591,9.110428,-0.8282013,1.5892334,1
592,9.1128235,-0.75756836,1.6059875,1
593,9.117614999999999,-0.7599640000000001,1.5904388,1
594,9.133179,-0.6989135999999999,1.4767151,1
595,9.153519000000001,-0.6761626999999999,1.5030518,1
596,9.172684,-0.64505005,1.5078278,1
597,9.191833500000001,-0.55885315,1.5138245000000001,1
598,9.152328500000001,-0.5672302,1.4623413,1
599,9.117614999999999,-0.5935669,1.449173,1
600,9.165497,-0.62828064,1.5090332,1
601,9.155914,-0.7048949999999999,1.5904388,1
602,9.088882,-0.7216644,1.6095886000000001,1
603,9.033813,-0.72525024,1.6107788,1
604,9.096069,-0.7599640000000001,1.5760651,1
605,9.200211,-0.76356506,1.5988159,1
606,9.201400999999999,-0.71447754,1.6095886000000001,1
607,9.121201,-0.64624023,1.7017669999999998,1
608,9.020645,-0.6354675,1.7328949,1
609,9.041,-0.68455505,1.7017669999999998,1
610,9.07811,-0.71806335,1.6574706999999997,1
611,9.088882,-0.80426025,1.6095886000000001,1
612,9.093674,-0.7803191999999999,1.6526793999999998,1
613,9.131973,-0.7623595999999999,1.6371155000000002,1
614,9.121201,-0.77552795,1.6921843999999997,1
615,9.122391,-0.8210144,1.6586609,1
616,9.086487,-0.9107970999999999,1.7113342,1
617,9.045776,-0.9443207,1.7484436,1
618,9.141556,-0.92996216,1.686203,1
619,9.196625,-0.9562988000000001,1.6299438,1
620,9.166687,-0.96347046,1.4946594,1
621,9.134369,-0.9036255,1.5449371,1
622,9.142746,-0.81503296,1.6598663,1
623,9.183456,-0.8317870999999999,1.6215515,1
624,9.15831,-0.82341003,1.6143798999999999,1
625,9.149933,-0.81503296,1.6263428,1
626,9.102051,-0.8377838,1.6323242,1
627,9.07811,-0.8090515,1.6239471,1
628,9.142746,-0.78271484,1.6502838,1
629,9.124786,-0.74679565,1.6119843,1
630,9.136764999999999,-0.7372284,1.6407166000000002,1
631,9.114014,-0.6653899999999999,1.6371155000000002,1
632,9.110428,-0.6546173000000001,1.5928345,1
633,9.12001,-0.68933105,1.5126190000000002,1
634,9.075714,-0.7587738,1.4898833999999999,1
635,9.142746,-0.8138428000000001,1.5988159,1
636,9.228943,-0.71328735,1.6335297,1
637,9.185837,-0.6977234,1.5976105,1
638,9.117614999999999,-0.68455505,1.5856476000000002,1
639,9.090073,-0.7276459,1.5760651,1
640,9.115219,-0.8126373,1.6431122,1
641,9.121201,-0.76834106,1.6646576000000002,1
642,9.0793,-0.75398254,1.6550751,1
643,9.069733,-0.74320984,1.6550751,1
644,9.125992,-0.739624,1.5808563,1
645,9.076903999999999,-0.7444,1.5617065,1
646,9.075714,-0.8162384,1.5880432,1
647,9.147537,-0.8377838,1.6443023999999997,1
648,9.148727000000001,-0.8090515,1.6215515,1
649,9.179855,-0.77194214,1.5353698999999998,1
650,9.149933,-0.7767334,1.5557098,1
651,9.282805999999999,-0.8174286000000001,1.5102233999999999,1
652,9.25528,-0.78990173,1.3653716999999999,1
653,9.067337,-0.7875061,1.4695281999999998,1
654,9.064941000000001,-0.80307007,1.5976105,1
655,9.134369,-0.86172485,1.631134,1
656,9.146347,-0.9287566999999999,1.6335297,1
657,9.131973,-0.94192505,1.6754303,1
658,9.123596000000001,-0.8533478000000001,1.6371155000000002,1
659,9.069733,-0.8210144,1.6550751,1
660,9.081696,-0.7815094,1.6873932,1
661,9.109222,-0.7515869000000001,1.6454925999999999,1
662,9.116408999999999,-0.71447754,1.6371155000000002,1
663,9.13916,-0.72883606,1.6347198,1
664,9.189438,-0.72525024,1.6383208999999999,1
665,9.201400999999999,-0.7192688,1.607193,1
666,9.086487,-0.68814087,1.5772705,1
667,9.129578,-0.6689911000000001,1.6191559,1
668,9.143951,-0.62828064,1.6167755,1
669,9.14035,-0.6366729999999999,1.6550751,1
670,9.106842,-0.6354675,1.6945801,1
671,9.129578,-0.6426544,1.6778258999999998,1
672,9.108032000000001,-0.54927063,1.670639,1
673,9.0972595,-0.5528717,1.6933898999999997,1
674,9.086487,-0.54689026,1.7065582,1
675,9.093674,-0.5313263,1.670639,1
676,9.115219,-0.5361023,1.686203,1
677,9.094864,-0.5600586,1.6682433999999997,1
678,9.135558999999999,-0.57681274,1.7149352999999998,1
679,9.164291,-0.6151123000000001,1.7412720000000002,1
680,9.153519000000001,-0.6701813,1.7017669999999998,1
681,9.124786,-0.61990356,1.6957703000000002,1
682,9.036209,-0.5851898,1.7604218,1
683,9.054169,-0.542099,1.8011169999999999,1
684,9.127182000000001,-0.54808044,1.7233124,1
685,9.0972595,-0.6043396,1.6873932,1
686,9.080505,-0.6438446,1.6981659,1
687,9.072113,-0.5923767,1.7281036,1
688,9.096069,-0.6031494000000001,1.7077484,1
689,9.127182000000001,-0.63786316,1.7017669999999998,1
690,9.143951,-0.6582184,1.6490936,1
691,9.116408999999999,-0.6426544,1.6203613000000001,1
692,9.096069,-0.6031494000000001,1.6359253,1
693,9.151123,-0.6103363,1.6251526,1
694,9.170288000000001,-0.5756073,1.6407166000000002,1
695,9.154724,-0.55766296,1.646698,1
696,9.143951,-0.54927063,1.6538848999999998,1
697,9.094864,-0.58039856,1.6454925999999999,1
698,9.07811,-0.61631775,1.6323242,1
699,9.084091,-0.64624023,1.6849976000000002,1
700,9.122391,-0.64505005,1.6778258999999998,1
701,9.13916,-0.6498413000000001,1.6790161,1
702,9.147537,-0.6510315,1.6969756999999999,1
703,9.124786,-0.6330719,1.7041626,1
704,9.092467999999998,-0.6103363,1.6766205,1
705,9.1128235,-0.5935669,1.6754303,1
706,9.123596000000001,-0.61750793,1.646698,1
707,9.141556,-0.60913086,1.6766205,1
708,9.114014,-0.6007538,1.6646576000000002,1
709,9.142746,-0.6498413000000001,1.6431122,1
710,9.143951,-0.6474456999999999,1.6275482,1
711,9.136764999999999,-0.6989135999999999,1.6550751,1
712,9.118805,-0.6701813,1.7041626,1
713,9.115219,-0.6330719,1.6778258999999998,1
714,9.134369,-0.62350464,1.6682433999999997,1
715,9.122391,-0.69651794,1.6897887999999999,1
716,9.099655,-0.72525024,1.7328949,1
717,9.081696,-0.73602295,1.7819672,1
718,9.152328500000001,-0.72525024,1.7819672,1
719,9.118805,-0.7599640000000001,1.6921843999999997,1
720,9.062546000000001,-0.7587738,1.7197266,1
721,9.044586,-0.7372284,1.7556305,1
722,9.093674,-0.7013092,1.8130951000000002,1
723,9.096069,-0.68814087,1.7831726000000003,1
724,9.054169,-0.6366729999999999,1.7005615,1
725,9.105637,-0.6713866999999999,1.6431122,1
726,9.122391,-0.6725769,1.6431122,1
727,9.15831,-0.67736816,1.6993713,1
728,9.167892,-0.6833496,1.6383208999999999,1
729,9.152328500000001,-0.68455505,1.6179656999999998,1
730,9.171478,-0.660614,1.7053528000000002,1
731,9.117614999999999,-0.66778564,1.6993713,1
732,9.070922999999999,-0.64505005,1.7017669999999998,1
733,9.080505,-0.6713866999999999,1.7113342,1
734,9.100845,-0.64863586,1.7257080000000002,1
735,9.064941000000001,-0.68933105,1.8106995,1
736,9.07811,-0.7096863,1.8466186999999998,1
737,9.121201,-0.7024994000000001,1.8394317999999998,1
738,9.102051,-0.67855835,1.8406220000000002,1
739,9.090073,-0.65701294,1.780777,1
740,9.074508999999999,-0.6534270999999999,1.7735901,1
741,9.064941000000001,-0.6067352,1.7999268,1
742,9.035003999999999,-0.6294860999999999,1.7735901,1
743,9.063736,-0.64505005,1.7783813000000002,1
744,9.069733,-0.6941223000000001,1.804718,1
745,9.093674,-0.71806335,1.7999268,1
746,9.131973,-0.76356506,1.7819672,1
747,9.152328500000001,-0.7527771,1.8118896,1
748,9.087677000000001,-0.72883606,1.8023223999999998,1
749,9.009872,-0.68933105,1.7771758999999998,1
750,9.006287,-0.660614,1.7987213,1
751,9.048172000000001,-0.5899810999999999,1.8741455000000002,1
752,9.080505,-0.59477234,1.8609772,1
753,9.064941000000001,-0.6474456999999999,1.8322449,1
754,9.0577545,-0.67378235,1.8298491999999997,1
755,9.12001,-0.61750793,1.8394317999999998,1
756,9.179855,-0.58758545,1.7436676,1
757,9.165497,-0.61631775,1.6431122,1
758,9.133179,-0.64624023,1.6000061,1
759,9.080505,-0.6294860999999999,1.5102233999999999,1
760,9.039795,-0.5648346,1.5712738000000002,1
761,9.092467999999998,-0.6414489999999999,1.5688782,1
762,9.146347,-0.6318816999999999,1.5353698999999998,1
763,9.220566,-0.69532776,1.4755096,1
764,9.260071,-0.73243713,1.433609,1
765,9.264847,-0.74320984,1.4527588,1
766,9.185837,-0.71687317,1.2504578000000002,1
767,9.166687,-0.7408142,1.1295471000000001,1
768,9.169083,-0.65940857,1.2289124,1
769,9.251678,-0.625885,1.2863617,1
770,9.303162,-0.581604,1.2971496999999999,1
771,9.189438,-0.6414489999999999,1.1223602,1
772,9.190628,-0.7156677,1.0445556999999999,1
773,9.292389,-0.7084961,1.2193298000000001,1
774,9.343857,-0.6522217,1.2899628,1
775,9.276825,-0.5923767,1.2636261,1
776,9.216965,-0.5133667000000001,1.2348938,1
777,9.14035,-0.42956543,1.2827758999999999,1
778,9.117614999999999,-0.38407898,1.3139038,1
779,9.042191,-0.34576416,1.4228363000000002,1
780,9.046982,-0.41639709999999996,1.5844421,1
781,9.103241,-0.54808044,1.6215515,1
782,9.121201,-0.6833496,1.6802216,1
783,9.221756,-0.83657837,1.8106995,1
784,9.201400999999999,-0.799469,1.7664031999999998,1
785,9.045776,-0.66300964,1.7436676,1
786,8.944030999999999,-0.52293396,1.9351958999999999,1
787,9.013458,-0.47625732,1.8705596999999998,1
788,9.111618,-0.51815796,1.7879486,1
789,9.13916,-0.58758545,1.9052734,1
790,9.032608,-0.62709045,1.880127,1
791,8.960785000000001,-0.72525024,1.8502044999999998,1
792,9.009872,-0.8198242,1.7101439999999999,1
793,9.13916,-0.67497253,1.7544403000000002,1
794,9.145142,-0.56604004,1.7245026,1
795,9.181061,-0.58758545,1.7065582,1
796,9.133179,-0.6139220999999999,1.7508392,1
797,9.068527,-0.66659546,1.6969756999999999,1
798,8.983536,-0.61631775,1.7101439999999999,1
799,9.038605,-0.56243896,1.7628173999999999,1
800,9.076903999999999,-0.6498413000000001,1.7795715,1
801,9.096069,-0.7384185999999999,1.7951355,1
802,9.128387,-0.799469,1.8035126,1
803,9.131973,-0.7228545999999999,1.8765411,1
804,9.056564,-0.71328735,1.8346405,1
805,9.052963,-0.7120819,1.7831726000000003,1
806,9.100845,-0.6833496,1.7580261000000001,1
807,9.106842,-0.6917267,1.7364807,1
808,9.088882,-0.70610046,1.8071136000000003,1
809,9.152328500000001,-0.72406006,1.7412720000000002,1
810,9.12001,-0.76594543,1.6933898999999997,1
811,9.127182000000001,-0.7922821,1.7029572,1
812,9.110428,-0.7408142,1.7376709,1
813,9.127182000000001,-0.7120819,1.8262633999999998,1
814,9.084091,-0.71447754,1.7472534,1
815,9.127182000000001,-0.7276459,1.7544403000000002,1
816,9.124786,-0.76475525,1.7484436,1
817,9.087677000000001,-0.72525024,1.7328949,1
818,9.118805,-0.69532776,1.7292938000000002,1
819,9.13916,-0.69532776,1.7616119,1
820,9.096069,-0.6929320999999999,1.785553,1
821,9.07811,-0.61990356,1.8059081999999997,1
822,9.103241,-0.59117126,1.8932953000000001,1
823,9.086487,-0.6127166999999999,1.7723846,1
824,9.115219,-0.6929320999999999,1.7149352999999998,1
825,9.102051,-0.680954,1.8023223999999998,1
826,9.131973,-0.6402588,1.8645630000000002,1
827,9.116408999999999,-0.6067352,1.8908996999999999,1
828,9.055359,-0.5959625,1.8298491999999997,1
829,9.035003999999999,-0.6869506999999999,1.7652130000000001,1
830,9.068527,-0.63786316,1.8346405,1
831,9.092467999999998,-0.58039856,1.8585814999999999,1
832,9.086487,-0.59117126,1.8825226000000002,1
833,9.07811,-0.66300964,1.8681641,1
834,9.075714,-0.6510315,1.7795715,1
835,9.141556,-0.6833496,1.7436676,1
836,9.118805,-0.67855835,1.7125397,1
837,9.092467999999998,-0.61990356,1.7592316000000003,1
838,9.124786,-0.60913086,1.7604218,1
839,9.122391,-0.6582184,1.7652130000000001,1
840,9.135558999999999,-0.6354675,1.7735901,1
841,9.100845,-0.6725769,1.7759857,1
842,9.0793,-0.6989135999999999,1.8035126,1
843,9.091277999999999,-0.7192688,1.8035126,1
844,9.104446000000001,-0.71806335,1.8382262999999999,1
845,9.115219,-0.6917267,1.7783813000000002,1
846,9.086487,-0.65940857,1.804718,1
847,9.056564,-0.64863586,1.8023223999999998,1
848,9.09845,-0.63905334,1.7687988000000001,1
849,9.093674,-0.6294860999999999,1.7975311,1
850,9.069733,-0.5792084,1.8454131999999999,1
851,9.068527,-0.62709045,1.825058,1
852,9.090073,-0.7048949999999999,1.7687988000000001,1
853,9.075714,-0.71687317,1.7556305,1
854,9.086487,-0.69532776,1.7580261000000001,1
855,9.100845,-0.6366729999999999,1.7544403000000002,1
856,9.0972595,-0.581604,1.8226776000000002,1
857,9.104446000000001,-0.5923767,1.785553,1
858,9.064941000000001,-0.59117126,1.828659,1
859,9.085281,-0.59117126,1.8154907,1
860,9.075714,-0.58039856,1.7640076,1
861,9.128387,-0.6701813,1.7257080000000002,1
862,9.12001,-0.7048949999999999,1.7843628,1
863,9.105637,-0.6414489999999999,1.8502044999999998,1
864,9.130783000000001,-0.67855835,1.7915497,1
865,9.125992,-0.6725769,1.6574706999999997,1
866,9.1128235,-0.62350464,1.6933898999999997,1
867,9.070922999999999,-0.6067352,1.7783813000000002,1
868,9.12001,-0.6474456999999999,1.7783813000000002,1
869,9.14035,-0.67855835,1.7424621999999999,1
870,9.099655,-0.6977234,1.7544403000000002,1
871,9.096069,-0.6713866999999999,1.7436676,1
872,9.085281,-0.6414489999999999,1.7568359,1
873,9.0733185,-0.65940857,1.7209167,1
874,9.117614999999999,-0.6474456999999999,1.6981659,1
875,9.111618,-0.6007538,1.6885986000000002,1
876,9.091277999999999,-0.5851898,1.8083038,1
877,9.125992,-0.61990356,1.8274536,1
878,9.111618,-0.7024994000000001,1.7723846,1
879,9.1128235,-0.7515869000000001,1.7400665000000002,1
880,9.103241,-0.7551727,1.8118896,1
881,9.103241,-0.7312316999999999,1.7987213,1
882,9.0972595,-0.6366729999999999,1.7628173999999999,1
883,9.133179,-0.6246948,1.7041626,1
884,9.121201,-0.5792084,1.6754303,1
885,9.117614999999999,-0.63427734,1.7221069,1
886,9.118805,-0.69532776,1.7245026,1
887,9.117614999999999,-0.6941223000000001,1.6694488999999997,1
888,9.143951,-0.66778564,1.6287383999999998,1
889,9.099655,-0.6414489999999999,1.6431122,1
890,9.06134,-0.5923767,1.7448578000000001,1
891,9.07811,-0.6330719,1.7508392,1
892,9.147537,-0.7527771,1.6909942999999998,1
893,9.167892,-0.79348755,1.7197266,1
894,9.091277999999999,-0.7048949999999999,1.7711945,1
895,9.086487,-0.59716797,1.8657683999999997,1
896,9.090073,-0.5205536000000001,1.7735901,1
897,9.048172000000001,-0.61631775,1.7424621999999999,1
898,9.055359,-0.61750793,1.7376709,1
899,9.130783000000001,-0.73483276,1.7687988000000001,1
900,9.135558999999999,-0.78990173,1.7412720000000002,1
901,9.123596000000001,-0.7563781999999999,1.6598663,1
902,9.07811,-0.6689911000000001,1.7999268,1
903,9.081696,-0.5444945999999999,1.8310547,1
904,9.129578,-0.625885,1.8178863999999997,1
905,9.0733185,-0.73602295,1.8298491999999997,1
906,9.090073,-0.7695465,1.8106995,1
907,9.055359,-0.680954,1.8106995,1
908,9.048172000000001,-0.67378235,1.8035126,1
909,9.068527,-0.7480011,1.8178863999999997,1
910,9.118805,-0.8413695999999999,1.8346405,1
911,9.232529,-0.80307007,1.785553,1
912,9.244507,-0.67497253,1.7819672,1
913,9.0182495,-0.54808044,1.8238678,1
914,9.015854,-0.49421692,1.7723846,1
915,9.116408999999999,-0.5851898,1.7879486,1
916,9.111618,-0.6115265000000001,1.7891540000000001,1
917,9.106842,-0.6031494000000001,1.7412720000000002,1
918,9.074508999999999,-0.6007538,1.820282,1
919,9.064941000000001,-0.6031494000000001,1.8980865000000002,1
920,9.055359,-0.5780029000000001,1.804718,1
921,9.103241,-0.51216125,1.7496490000000002,1
922,9.21936,-0.6007538,1.7424621999999999,1
923,9.190628,-0.7228545999999999,1.7436676,1
924,9.049377,-0.7707366999999999,1.785553,1
925,9.029022,-0.6689911000000001,1.8166808999999997,1
926,9.023041000000001,-0.59716797,1.9004822000000001,1
927,9.048172000000001,-0.58877563,1.8968964,1
928,9.081696,-0.5959625,1.9232330000000002,1
929,9.086487,-0.5935669,1.9304047,1
930,9.104446000000001,-0.5780029000000001,1.9639282,1
931,9.099655,-0.625885,1.904068,1
932,9.153519000000001,-0.71447754,1.8549957,1
933,9.06134,-0.74679565,1.8897095000000002,1
934,9.020645,-0.7264556999999999,1.9052734,1
935,9.12001,-0.67736816,1.8418273999999997,1
936,9.14035,-0.6701813,1.8035126,1
937,9.008666999999999,-0.69532776,1.7795715,1
938,9.024231,-0.6917267,1.8059081999999997,1
939,9.134369,-0.69651794,1.8657683999999997,1
940,9.141556,-0.6689911000000001,1.9076691000000003,1
941,9.064941000000001,-0.67378235,1.9076691000000003,1
942,9.052963,-0.5337219,1.8717499,1
943,9.038605,-0.5097656,1.8478088,1
944,9.069733,-0.59835815,1.8226776000000002,1
945,9.0972595,-0.680954,1.8346405,1
946,9.064941000000001,-0.7300415,1.8382262999999999,1
947,9.092467999999998,-0.7084961,1.8502044999999998,1
948,9.12001,-0.6534270999999999,1.8657683999999997,1
949,9.056564,-0.7048949999999999,1.9316101000000003,1
950,9.051772999999999,-0.72883606,1.9639282,1
951,9.032608,-0.739624,1.9555511000000003,1
952,9.052963,-0.6641998,1.9387816999999998,1
953,9.072113,-0.6534270999999999,1.8980865000000002,1
954,9.075714,-0.6869506999999999,1.9184418,1
955,9.044586,-0.67855835,1.9603423999999998,1
956,9.039795,-0.64863586,1.9268188000000002,1
957,9.019455,-0.68574524,1.8968964,1
958,9.063736,-0.66778564,1.9364013999999998,1
959,9.069733,-0.67736816,1.919632,1
960,9.076903999999999,-0.6689911000000001,2.0034332,1
961,9.105637,-0.7192688,2.0118103,1
962,9.066132000000001,-0.720459,1.9124603,1
963,9.037399,-0.7120819,1.9172363000000001,1
964,9.072113,-0.6905365,1.9160461,1
965,9.0577545,-0.65582275,1.8537903000000002,1
966,9.039795,-0.6007538,1.8394317999999998,1
967,9.1128235,-0.68574524,1.7951355,1
968,9.128387,-0.70610046,1.8370361000000002,1
969,9.058945,-0.70370483,1.8980865000000002,1
970,9.046982,-0.6043396,1.8945006999999998,1
971,9.115219,-0.70729065,1.8609772,1
972,9.0577545,-0.8198242,1.8621674,1
973,9.129578,-0.8282013,1.8908996999999999,1
974,9.092467999999998,-0.7671509,1.9256133999999998,1
975,9.048172000000001,-0.80426025,1.9687195,1
976,9.088882,-0.8066559,2.0034332,1
977,9.086487,-0.8174286000000001,1.8861237000000002,1
978,9.087677000000001,-0.8485565,1.8813324,1
979,9.086487,-0.82341003,1.8454131999999999,1
980,9.090073,-0.8138428000000001,1.8513947,1
981,9.129578,-0.77433777,1.8549957,1
982,9.063736,-0.75398254,1.7376709,1
983,9.104446000000001,-0.77552795,1.780777,1
984,9.135558999999999,-0.7156677,1.796341,1
985,9.125992,-0.7048949999999999,1.785553,1
986,9.072113,-0.7922821,1.7460631999999998,1
987,9.09845,-0.81503296,1.7532348999999998,1
988,9.128387,-0.77911377,1.7005615,1
989,9.049377,-0.72883606,1.6897887999999999,1
990,9.062546000000001,-0.66659546,1.7424621999999999,1
991,9.076903999999999,-0.7420044,1.8106995,1
992,9.127182000000001,-0.8282013,1.8633727999999998,1
993,9.102051,-0.82341003,1.7113342,1
994,9.136764999999999,-0.7096863,1.6371155000000002,1
995,9.118805,-0.7096863,1.6981659,1
996,9.131973,-0.6929320999999999,1.6957703000000002,1
997,9.068527,-0.74679565,1.7424621999999999,1
998,9.075714,-0.7982788000000001,1.7113342,1
999,9.124786,-0.8210144,1.7532348999999998,1
1000,9.129578,-0.8425598,1.6694488999999997,1
1001,9.135558999999999,-0.80784607,1.6849976000000002,1
1002,9.099655,-0.7228545999999999,1.6526793999999998,1
1003,9.099655,-0.71806335,1.6550751,1
1004,9.076903999999999,-0.7731323,1.6778258999999998,1
1005,9.085281,-0.7491913,1.670639,1
1006,9.153519000000001,-0.75398254,1.5736694,1
1007,9.153519000000001,-0.6905365,1.4767151,1
1008,9.110428,-0.62350464,1.5389556999999998,1
1009,9.123596000000001,-0.6222991999999999,1.6407166000000002,1
1010,9.145142,-0.621109,1.5712738000000002,1
1011,9.17746,-0.6043396,1.528183,1
1012,9.169083,-0.53012085,1.5449371,1
1013,9.102051,-0.48223877,1.607193,1
1014,9.109222,-0.48104858,1.5964203000000001,1
1015,9.0972595,-0.58758545,1.6323242,1
1016,9.12001,-0.64505005,1.5593108999999998,1
1017,9.173874,-0.5792084,1.5569153,1
1018,9.221756,-0.56962585,1.6143798999999999,1
1019,9.14035,-0.6127166999999999,1.5581055,1
1020,9.06134,-0.64624023,1.5401611000000002,1
1021,9.039795,-0.7084961,1.5952148000000002,1
1022,9.129578,-0.7336273,1.5569153,1
1023,9.21936,-0.73483276,1.5317688,1
1024,9.189438,-0.6917267,1.528183,1
1025,9.128387,-0.7264556999999999,1.5569153,1
1026,9.115219,-0.7623595999999999,1.4803008999999998,1
1027,9.14035,-0.86531067,1.4324188,1
1028,9.171478,-0.86172485,1.473114,1
1029,9.193024000000001,-0.80307007,1.4707184,1
1030,9.205002,-0.83299255,1.4348145,1
1031,9.185837,-0.8210144,1.4455871999999999,1
1032,9.196625,-0.80545044,1.4539642,1
1033,9.121201,-0.7587738,1.4946594,1
1034,9.114014,-0.7515869000000001,1.4946594,1
1035,9.087677000000001,-0.7731323,1.5209961,1
1036,9.185837,-0.7671509,1.543747,1
1037,9.252884,-0.79707336,1.4503784,1
1038,9.167892,-0.8473511,1.4779053,1
1039,9.115219,-0.81144714,1.5461426,1
1040,9.171478,-0.78630066,1.5401611000000002,1
1041,9.224152,-0.76356506,1.4120636,1
1042,9.167892,-0.7013092,1.394104,1
1043,9.122391,-0.7096863,1.3869323999999998,1
1044,9.1128235,-0.67736816,1.4922638000000001,1
1045,9.13916,-0.74560547,1.504242,1
1046,9.157119999999999,-0.70610046,1.4683228000000002,1
1047,9.178664999999999,-0.7503966999999999,1.4647369,1
1048,9.194229,-0.7803191999999999,1.4372101000000002,1
1049,9.164291,-0.8305969000000001,1.4192505,1
1050,9.153519000000001,-0.7815094,1.4360046,1
1051,9.096069,-0.7216644,1.4922638000000001,1
1052,9.117614999999999,-0.69532776,1.5102233999999999,1
1053,9.181061,-0.8425598,1.5054321000000002,1
1054,9.262466,-0.8473511,1.3881226,1
1055,9.183456,-0.80067444,1.4611511000000001,1
1056,9.100845,-0.7048949999999999,1.5341643999999999,1
1057,9.09845,-0.6929320999999999,1.5102233999999999,1
1058,9.080505,-0.7420044,1.4994507,1
1059,9.093674,-0.7503966999999999,1.4431915000000002,1
1060,9.13916,-0.80067444,1.4384003,1
1061,9.199005,-0.81503296,1.5006561,1
1062,9.2313385,-0.7312316999999999,1.5209961,1
1063,9.194229,-0.6797638,1.5892334,1
1064,9.135558999999999,-0.69651794,1.5293732,1
1065,9.094864,-0.7216644,1.4551544,1
1066,9.103241,-0.7671509,1.4826965,1
1067,9.100845,-0.77433777,1.4850922,1
1068,9.124786,-0.7551727,1.5485381999999999,1
1069,9.191833500000001,-0.72883606,1.4922638000000001,1
1070,9.194229,-0.75756836,1.4503784,1
1071,9.160706,-0.6977234,1.473114,1
1072,9.111618,-0.65940857,1.543747,1
1073,9.152328500000001,-0.65701294,1.4886780000000002,1
1074,9.147537,-0.74679565,1.4156494,1
1075,9.100845,-0.7599640000000001,1.4862823,1
1076,9.135558999999999,-0.7707366999999999,1.4779053,1
1077,9.216965,-0.7767334,1.4659271,1
1078,9.249298,-0.80426025,1.433609,1
1079,9.143951,-0.7312316999999999,1.4312133999999999,1
1080,9.123596000000001,-0.67497253,1.5090332,1
1081,9.118805,-0.7001189999999999,1.5305786,1
1082,9.13916,-0.7563781999999999,1.5078278,1
1083,9.185837,-0.8138428000000001,1.4838867,1
1084,9.163101,-0.74560547,1.4635468,1
1085,9.151123,-0.6869506999999999,1.5078278,1
1086,9.118805,-0.72525024,1.5018463,1
1087,9.137955,-0.71328735,1.5222015,1
1088,9.146347,-0.7527771,1.4838867,1
1089,9.154724,-0.7491913,1.4922638000000001,1
1090,9.141556,-0.76594543,1.5018463,1
1091,9.134369,-0.77194214,1.4982605,1
1092,9.12001,-0.77194214,1.4922638000000001,1
1093,9.116408999999999,-0.76594543,1.4779053,1
1094,9.146347,-0.7587738,1.5317688,1
1095,9.179855,-0.74320984,1.5174103,1
1096,9.155914,-0.7120819,1.5209961,1
1097,9.108032000000001,-0.7587738,1.5377655000000001,1
1098,9.129578,-0.7623595999999999,1.4779053,1
1099,9.13916,-0.7671509,1.5150146,1
1100,9.163101,-0.82221985,1.4910736,1
1101,9.17746,-0.83418274,1.5090332,1
1102,9.128387,-0.7731323,1.5233917,1
1103,9.094864,-0.76594543,1.5162201000000002,1
1104,9.133179,-0.8473511,1.5425415,1
1105,9.117614999999999,-0.8593291999999999,1.5329742,1
1106,9.164291,-0.7815094,1.5940246999999999,1
1107,9.191833500000001,-0.80545044,1.567688,1
1108,9.155914,-0.8102417,1.5150146,1
1109,9.09845,-0.8174286000000001,1.4384003,1
1110,9.125992,-0.7875061,1.5401611000000002,1
1111,9.09845,-0.77433777,1.5126190000000002,1
1112,9.104446000000001,-0.7707366999999999,1.5078278,1
1113,9.153519000000001,-0.7384185999999999,1.4814911,1
1114,9.195419000000001,-0.77194214,1.5054321000000002,1
1115,9.218169999999999,-0.7851104999999999,1.4216461,1
1116,9.21936,-0.86291504,1.3282623,1
1117,9.0733185,-0.7982788000000001,1.3725586,1
1118,9.033813,-0.6713866999999999,1.5054321000000002,1
1119,9.081696,-0.6797638,1.5054321000000002,1
1120,9.159514999999999,-0.7815094,1.4072723,1
1121,9.17746,-0.80307007,1.4467773000000002,1
1122,9.163101,-0.8856659,1.45755,1
1123,9.184647,-0.8677063,1.5138245000000001,1
1124,9.190628,-0.77194214,1.4886780000000002,1
1125,9.163101,-0.6989135999999999,1.3977051,1
1126,9.173874,-0.7444,1.3917084,1
1127,9.118805,-0.86291504,1.413269,1
1128,9.121201,-0.8162384,1.5198059,1
1129,9.125992,-0.78990173,1.5377655000000001,1
1130,9.123596000000001,-0.7300415,1.53656,1
1131,9.130783000000001,-0.8066559,1.433609,1
1132,9.124786,-0.8413695999999999,1.4443816999999999,1
1133,9.149933,-0.799469,1.4300232,1
1134,9.114014,-0.7491913,1.4455871999999999,1
1135,9.118805,-0.8246155000000001,1.4276276,1
1136,9.161896,-0.8473511,1.4216461,1
1137,9.197815,-0.8186188,1.3857268999999999,1
1138,9.173874,-0.7384185999999999,1.2995299999999999,1
1139,9.215775,-0.6618042,1.3222809,1
1140,9.169083,-0.6618042,1.2839813,1
1141,9.134369,-0.7096863,1.291153,1
1142,9.157119999999999,-0.7851104999999999,1.4060822,1
1143,9.15831,-0.79467773,1.3605957,1
1144,9.23732,-0.8162384,1.4108733999999998,1
1145,9.243300999999999,-0.8066559,1.394104,1
1146,9.183456,-0.73483276,1.3665771,1
1147,9.087677000000001,-0.72883606,1.4348145,1
1148,9.1128235,-0.72525024,1.4683228000000002,1
1149,9.151123,-0.7587738,1.4419861,1
1150,9.145142,-0.8246155000000001,1.4611511000000001,1
1151,9.164291,-0.8018645999999999,1.45755,1
1152,9.195419000000001,-0.7276459,1.4659271,1
1153,9.190628,-0.7851104999999999,1.4264374,1
1154,9.133179,-0.7779235999999999,1.3605957,1
1155,9.123596000000001,-0.79348755,1.4204407,1
1156,9.184647,-0.7803191999999999,1.4874878,1
1157,9.185837,-0.7779235999999999,1.4515686,1
1158,9.160706,-0.79348755,1.4276276,1
1159,9.188232000000001,-0.85214233,1.4647369,1
1160,9.135558999999999,-0.9060210999999999,1.4850922,1
1161,9.096069,-0.85453796,1.4647369,1
1162,9.172684,-0.84017944,1.4755096,1
1163,9.147537,-0.82341003,1.473114,1
1164,9.17627,-0.8305969000000001,1.4779053,1
1165,9.133179,-0.84495544,1.5413513,1
1166,9.128387,-0.79467773,1.4216461,1
1167,9.141556,-0.68814087,1.409668,1
1168,9.13916,-0.58877563,1.4276276,1
1169,9.130783000000001,-0.69651794,1.4659271,1
1170,9.128387,-0.79467773,1.4826965,1
1171,9.14035,-0.8413695999999999,1.4790955,1
1172,9.187042,-0.79467773,1.4922638000000001,1
1173,9.214569000000001,-0.81144714,1.4838867,1
1174,9.184647,-0.7982788000000001,1.4719238000000001,1
1175,9.161896,-0.8305969000000001,1.4527588,1
1176,9.116408999999999,-0.8174286000000001,1.473114,1
1177,9.105637,-0.8282013,1.4767151,1
1178,9.128387,-0.8270110999999999,1.4982605,1
1179,9.151123,-0.8760834000000001,1.5078278,1
1180,9.143951,-0.97184753,1.4910736,1
1181,9.197815,-0.8712921,1.4527588,1
1182,9.221756,-0.77552795,1.4814911,1
1183,9.163101,-0.7803191999999999,1.4599457,1
1184,9.07811,-0.81144714,1.4910736,1
1185,9.052963,-0.7695465,1.497055,1
1186,9.142746,-0.81144714,1.4958649,1
1187,9.199005,-0.8473511,1.4431915000000002,1
1188,9.143951,-0.8210144,1.4850922,1
1189,9.193024000000001,-0.7886963,1.5006561,1
1190,9.189438,-0.82341003,1.4551544,1
1191,9.153519000000001,-0.8126373,1.4348145,1
1192,9.091277999999999,-0.7096863,1.4324188,1
1193,9.100845,-0.6725769,1.5293732,1
1194,9.166687,-0.71447754,1.5605011,1
1195,9.175064,-0.7695465,1.5509338,1
1196,9.134369,-0.8473511,1.5174103,1
1197,9.087677000000001,-0.79348755,1.5317688,1
1198,9.136764999999999,-0.7695465,1.4850922,1
1199,9.153519000000001,-0.7444,1.4312133999999999,1
1200,9.153519000000001,-0.8186188,1.4898833999999999,1
1201,9.134369,-0.82580566,1.5090332,1
1202,9.161896,-0.8090515,1.4587555,1
1203,9.164291,-0.7563781999999999,1.4300232,1
1204,9.155914,-0.799469,1.4587555,1
1205,9.108032000000001,-0.82341003,1.45755,1
1206,9.121201,-0.8868560999999999,1.5329742,1
1207,9.146347,-0.80426025,1.5796661,1
1208,9.151123,-0.8353881999999999,1.5760651,1
1209,9.170288000000001,-0.87968445,1.5557098,1
1210,9.116408999999999,-0.9371338,1.53656,1
1211,9.161896,-0.8688965,1.5593108999999998,1
1212,9.159514999999999,-0.8126373,1.5641022,1
1213,9.135558999999999,-0.85214233,1.6012115,1
1214,9.131973,-0.838974,1.5724791999999999,1
1215,9.093674,-0.85214233,1.4671326,1
1216,9.14035,-0.79348755,1.4659271,1
1217,9.191833500000001,-0.6941223000000001,1.473114,1
1218,9.172684,-0.63067627,1.4743195,1
1219,9.121201,-0.6330719,1.4623413,1
1220,9.103241,-0.76834106,1.504242,1
1221,9.15831,-0.8820648000000001,1.4838867,1
1222,9.166687,-0.8712921,1.5581055,1
1223,9.200211,-0.80067444,1.6179656999999998,1
1224,9.173874,-0.7671509,1.5880432,1
1225,9.151123,-0.8353881999999999,1.4814911,1
1226,9.091277999999999,-0.8210144,1.5090332,1
1227,9.06134,-0.8126373,1.5257874,1
1228,9.175064,-0.80307007,1.5174103,1
1229,9.183456,-0.8270110999999999,1.4683228000000002,1
1230,9.0972595,-0.8066559,1.4192505,1
1231,9.085281,-0.7886963,1.4779053,1
1232,9.197815,-0.72406006,1.4826965,1
1233,9.248092999999999,-0.71806335,1.4563598999999998,1
1234,9.172684,-0.7336273,1.5305786,1
1235,9.136764999999999,-0.8760834000000001,1.6059875,1
1236,9.0972595,-0.97784424,1.5628966999999998,1
1237,9.185837,-0.8772888000000001,1.4144591999999998,1
1238,9.179855,-0.73602295,1.4144591999999998,1
1239,9.15831,-0.7048949999999999,1.413269,1
1240,9.116408999999999,-0.80307007,1.4228363000000002,1
1241,9.105637,-0.8688965,1.5545197,1
1242,9.17746,-0.9167938,1.5174103,1
1243,9.166687,-0.8569336,1.4024811000000001,1
1244,9.123596000000001,-0.76594543,1.394104,1
1245,9.130783000000001,-0.8102417,1.4168549,1
1246,9.190628,-0.8928528,1.4431915000000002,1
1247,9.123596000000001,-0.85095215,1.543747,1
1248,9.109222,-0.8712921,1.5557098,1
1249,9.157119999999999,-0.9167938,1.4240416999999999,1
1250,9.187042,-0.92996216,1.3366547,1
1251,9.220566,-0.91319275,1.3450316999999998,1
1252,9.199005,-0.8701019,1.334259,1
1253,9.127182000000001,-0.8198242,1.3809357,1
1254,9.106842,-0.81144714,1.3857268999999999,1
1255,9.129578,-0.8677063,1.4156494,1
1256,9.161896,-0.9359436,1.413269,1
1257,9.221756,-0.89404297,1.3450316999999998,1
1258,9.160706,-0.85453796,1.2899628,1
1259,9.09845,-0.7563781999999999,1.3510132,1
1260,9.102051,-0.7886963,1.3593903,1
1261,9.179855,-0.84017944,1.3761444,1
1262,9.195419000000001,-0.8964386000000001,1.3270721,1
1263,9.106842,-0.8760834000000001,1.3953094,1
1264,9.145142,-0.8353881999999999,1.4012909,1
1265,9.215775,-0.79707336,1.334259,1
1266,9.245697,-0.8880615,1.3809357,1
1267,9.146347,-0.95150757,1.3486176,1
1268,9.062546000000001,-0.88446045,1.3450316999999998,1
1269,9.131973,-0.8377838,1.418045,1
1270,9.161896,-0.8425598,1.4779053,1
1271,9.205002,-0.9107970999999999,1.4611511000000001,1
1272,9.131973,-0.93833923,1.449173,1
1273,9.141556,-0.9155884,1.4240416999999999,1
1274,9.170288000000001,-0.8688965,1.4551544,1
1275,9.153519000000001,-0.86291504,1.4312133999999999,1
1276,9.163101,-0.83418274,1.394104,1
1277,9.127182000000001,-0.83299255,1.4048767,1
1278,9.143951,-0.8701019,1.4647369,1
1279,9.182250999999999,-0.9084015,1.4419861,1
1280,9.197815,-0.87968445,1.3593903,1
1281,9.183456,-0.8772888000000001,1.4431915000000002,1
1282,9.134369,-0.8748931999999999,1.4659271,1
1283,9.153519000000001,-0.8569336,1.5018463,1
1284,9.146347,-0.8641205,1.449173,1
1285,9.123596000000001,-0.9000244000000001,1.4120636,1
1286,9.129578,-0.8856659,1.4910736,1
1287,9.141556,-0.84376526,1.4814911,1
1288,9.143951,-0.85214233,1.4803008999999998,1
1289,9.110428,-0.82341003,1.4515686,1
1290,9.108032000000001,-0.82341003,1.4611511000000001,1
1291,9.181061,-0.80784607,1.4360046,1
1292,9.170288000000001,-0.79348755,1.4647369,1
1293,9.166687,-0.86531067,1.4695281999999998,1
1294,9.171478,-0.94192505,1.4994507,1
1295,9.154724,-0.8748931999999999,1.497055,1
1296,9.088882,-0.8461609,1.4743195,1
1297,9.088882,-0.85214233,1.4683228000000002,1
1298,9.123596000000001,-0.91200256,1.4874878,1
1299,9.172684,-0.8892517,1.5257874,1
1300,9.164291,-0.87249756,1.4312133999999999,1
1301,9.182250999999999,-0.87249756,1.4695281999999998,1
1302,9.066132000000001,-0.89164734,1.53656,1
1303,9.108032000000001,-0.85572815,1.5557098,1
1304,9.179855,-0.92037964,1.497055,1
1305,9.210983,-0.9562988000000001,1.3545989999999999,1
1306,9.136764999999999,-0.9443207,1.3689728,1
1307,9.0972595,-0.8066559,1.4814911,1
1308,9.165497,-0.81144714,1.4910736,1
1309,9.171478,-0.86291504,1.5126190000000002,1
1310,9.127182000000001,-0.9084015,1.497055,1
1311,9.118805,-0.94551086,1.4719238000000001,1
1312,9.141556,-0.8964386000000001,1.4563598999999998,1
1313,9.166687,-0.8174286000000001,1.4431915000000002,1
1314,9.167892,-0.838974,1.497055,1
1315,9.152328500000001,-0.87968445,1.4515686,1
1316,9.116408999999999,-0.8772888000000001,1.4803008999999998,1
1317,9.142746,-0.8976288,1.5772705,1
1318,9.133179,-0.8748931999999999,1.504242,1
1319,9.149933,-0.8688965,1.5461426,1
1320,9.134369,-0.8964386000000001,1.5102233999999999,1
1321,9.164291,-0.8976288,1.5233917,1
1322,9.154724,-0.88446045,1.5186005,1
1323,9.093674,-0.87368774,1.5186005,1
1324,9.1128235,-0.87968445,1.4623413,1
1325,9.148727000000001,-0.87968445,1.4803008999999998,1
1326,9.165497,-0.8569336,1.5305786,1
1327,9.169083,-0.85453796,1.45755,1
1328,9.178664999999999,-0.8988341999999999,1.4503784,1
1329,9.160706,-0.8856659,1.4467773000000002,1
1330,9.167892,-0.8473511,1.4886780000000002,1
1331,9.142746,-0.86172485,1.4790955,1
1332,9.131973,-0.8282013,1.4755096,1
1333,9.110428,-0.8892517,1.5174103,1
1334,9.165497,-0.91200256,1.5317688,1
1335,9.125992,-0.8377838,1.4826965,1
1336,9.136764999999999,-0.78630066,1.5054321000000002,1
1337,9.130783000000001,-0.8018645999999999,1.5964203000000001,1
1338,9.160706,-0.8473511,1.5413513,1
1339,9.131973,-0.838974,1.5150146,1
1340,9.06134,-0.7803191999999999,1.5964203000000001,1
1341,9.125992,-0.7982788000000001,1.6179656999999998,1
1342,9.122391,-0.9335479999999999,1.5820465,1
1343,9.181061,-0.9826355,1.5245971999999999,1
1344,9.134369,-0.89164734,1.4599457,1
1345,9.0972595,-0.78630066,1.5126190000000002,1
1346,9.125992,-0.73243713,1.6191559,1
1347,9.147537,-0.8688965,1.5509338,1
1348,9.142746,-0.87368774,1.5293732,1
1349,9.14035,-0.8892517,1.5030518,1
1350,9.157119999999999,-0.88446045,1.4814911,1
1351,9.167892,-0.8772888000000001,1.543747,1
1352,9.173874,-0.8964386000000001,1.5066376,1
1353,9.160706,-0.9682617,1.4479828000000001,1
1354,9.129578,-1.0221252,1.4192505,1
1355,9.137955,-1.0161438,1.4695281999999998,1
1356,9.152328500000001,-0.9251709000000001,1.5293732,1
1357,9.1128235,-0.9036255,1.4695281999999998,1
1358,9.091277999999999,-0.9000244000000001,1.543747,1
1359,9.111618,-0.8665161,1.567688,1
1360,9.085281,-0.8605193999999999,1.631134,1
1361,9.108032000000001,-0.8784790000000001,1.5868378,1
1362,9.09845,-0.89523315,1.6490936,1
1363,9.064941000000001,-0.9036255,1.6909942999999998,1
1364,9.0577545,-0.8701019,1.7161255000000002,1
1365,9.050568,-0.8892517,1.6526793999999998,1
1366,9.109222,-0.8988341999999999,1.5641022,1
1367,9.125992,-0.94911194,1.6095886000000001,1
1368,9.121201,-0.9323425,1.662262,1
1369,9.058945,-0.8856659,1.6550751,1
1370,9.155914,-0.9107970999999999,1.5784607,1
1371,9.183456,-0.8928528,1.4671326,1
1372,9.179855,-0.9215698,1.3569946000000002,1
1373,9.179855,-0.96707153,1.3869323999999998,1
1374,9.159514999999999,-0.9479065000000001,1.4623413,1
1375,9.0972595,-0.9550934000000001,1.45755,1
1376,9.151123,-0.9287566999999999,1.4360046,1
1377,9.181061,-0.89523315,1.4623413,1
1378,9.159514999999999,-0.8784790000000001,1.449173,1
1379,9.131973,-0.9048156999999999,1.4300232,1
1380,9.17746,-0.9251709000000001,1.5269928,1
1381,9.086487,-0.8784790000000001,1.5401611000000002,1
1382,9.082901,-0.94073486,1.4228363000000002,1
1383,9.133179,-0.9610748,1.3665771,1
1384,9.159514999999999,-0.95988464,1.3749542,1
1385,9.12001,-0.9586792,1.4683228000000002,1
1386,9.197815,-0.92396545,1.5257874,1
1387,9.203796,-1.0077667,1.4647369,1
1388,9.194229,-1.0556488000000002,1.409668,1
1389,9.175064,-1.0747986,1.334259,1
1390,9.170288000000001,-0.9981841999999999,1.3964996,1
1391,9.103241,-0.87368774,1.4072723,1
1392,9.153519000000001,-0.84017944,1.3713684,1
1393,9.183456,-0.9287566999999999,1.413269,1
1394,9.100845,-0.97065735,1.4814911,1
1395,9.082901,-0.9862213,1.5269928,1
1396,9.096069,-0.9898070999999999,1.5150146,1
1397,9.105637,-0.9838256999999999,1.4862823,1
1398,9.147537,-0.9766388,1.4360046,1
1399,9.118805,-1.0113524999999999,1.409668,1
1400,9.121201,-1.0029755,1.4360046,1
1401,9.167892,-1.0017853,1.4527588,1
1402,9.205002,-1.0269165,1.4623413,1
1403,9.221756,-1.0376892,1.3629761,1
1404,9.143951,-1.0400848,1.3797455,1
1405,9.093674,-1.0185394,1.4252319,1
1406,9.133179,-1.036499,1.413269,1
1407,9.130783000000001,-1.0831909,1.4934691999999998,1
1408,9.131973,-1.0532532,1.4479828000000001,1
1409,9.157119999999999,-0.996994,1.5054321000000002,1
1410,9.145142,-0.8988341999999999,1.5090332,1
1411,9.087677000000001,-0.8317870999999999,1.5066376,1
1412,9.141556,-0.8473511,1.4994507,1
1413,9.130783000000001,-0.91319275,1.5760651,1
1414,9.104446000000001,-0.8712921,1.5820465,1
1415,9.121201,-0.76594543,1.5329742,1
1416,9.170288000000001,-0.7563781999999999,1.4072723,1
1417,9.135558999999999,-0.8102417,1.4623413,1
1418,9.0733185,-0.8880615,1.5497284,1
1419,9.153519000000001,-0.9275665000000001,1.5138245000000001,1
1420,9.233734,-1.0041809000000002,1.3474274,1
1421,9.13916,-1.036499,1.3988953000000002,1
1422,9.055359,-0.9874115,1.5497284,1
1423,9.09845,-0.9539032,1.5904388,1
1424,9.093674,-0.8377838,1.5628966999999998,1
1425,9.148727000000001,-0.87968445,1.4467773000000002,1
1426,9.155914,-0.9335479999999999,1.3725586,1
1427,9.171478,-1.0149536,1.4060822,1
1428,9.142746,-1.0257263,1.4587555,1
1429,9.142746,-1.1095276,1.3929138,1
1430,9.125992,-1.1406403,1.4623413,1
1431,9.123596000000001,-1.2591553,1.3881226,1
1432,9.148727000000001,-1.2627563,1.409668,1
1433,9.239716,-1.1346588,1.4348145,1
1434,9.195419000000001,-1.0819855,1.3809357,1
1435,9.141556,-1.0771941999999999,1.4012909,1
1436,9.087677000000001,-1.155014,1.4934691999999998,1
1437,9.072113,-1.1765594,1.5413513,1
1438,9.069733,-1.1837463,1.5150146,1
1439,9.1128235,-1.1921233999999998,1.4910736,1
1440,9.155914,-1.1262816999999998,1.5138245000000001,1
1441,9.163101,-1.1430358999999999,1.5449371,1
1442,9.131973,-1.1454315000000002,1.5138245000000001,1
1443,9.130783000000001,-1.1286774,1.5066376,1
1444,9.115219,-1.0975494,1.5150146,1
1445,9.106842,-1.131073,1.4755096,1
1446,9.124786,-1.1729736000000002,1.4695281999999998,1
1447,9.155914,-1.1849365,1.4695281999999998,1
1448,9.102051,-1.2076874,1.4611511000000001,1
1449,9.1128235,-1.1789551,1.5222015,1
1450,9.146347,-1.175354,1.5138245000000001,1
1451,9.133179,-1.1981049,1.4695281999999998,1
1452,9.146347,-1.1633911,1.4587555,1
1453,9.149933,-1.1023406999999998,1.5018463,1
1454,9.133179,-1.1047363000000001,1.45755,1
1455,9.102051,-1.1466370000000001,1.4886780000000002,1
1456,9.104446000000001,-1.1669768999999999,1.5389556999999998,1
1457,9.124786,-1.0628357,1.6047973999999998,1
1458,9.128387,-1.1095276,1.5605011,1
1459,9.149933,-1.0963593,1.5018463,1
1460,9.088882,-1.0652313,1.5293732,1
1461,9.027832,-0.9766388,1.5641022,1
1462,9.100845,-1.0113524999999999,1.5796661,1
1463,9.153519000000001,-1.0293120999999998,1.4683228000000002,1
1464,9.164291,-0.9945984,1.4407959,1
1465,9.129578,-0.94911194,1.418045,1
1466,9.148727000000001,-0.9359436,1.3522034,1
1467,9.194229,-0.9658661000000001,1.310318,1
1468,9.257675,-0.9072113000000002,1.3079223999999998,1
1469,9.233734,-0.8186188,1.3641815000000002,1
1470,9.096069,-0.76594543,1.4120636,1
1471,9.067337,-0.8425598,1.4779053,1
1472,9.13916,-0.94551086,1.4419861,1
1473,9.1128235,-0.9275665000000001,1.5150146,1
1474,9.06134,-0.86172485,1.5186005,1
1475,9.124786,-0.82940674,1.5138245000000001,1
1476,9.142746,-0.76834106,1.4743195,1
1477,9.115219,-0.82221985,1.4946594,1
1478,9.075714,-0.8701019,1.4527588,1
1479,9.12001,-0.9335479999999999,1.4156494,1
1480,9.179855,-0.9395294,1.3833313,1
1481,9.202606,-0.94073486,1.4204407,1
1482,9.227737,-0.9754485999999999,1.4024811000000001,1
1483,9.15831,-1.0352936,1.4060822,1
1484,9.133179,-1.0472716999999998,1.3953094,1
1485,9.118805,-1.0819855,1.4072723,1
1486,9.070922999999999,-1.0855713,1.4527588,1
1487,9.094864,-1.0879669,1.4587555,1
1488,9.123596000000001,-1.0843811,1.4300232,1
1489,9.245697,-1.0987396,1.4372101000000002,1
1490,9.264847,-1.0664215,1.349823,1
1491,9.190628,-1.0341034,1.3833313,1
1492,9.111618,-1.020935,1.4108733999999998,1
1493,9.159514999999999,-1.0819855,1.3617858999999999,1
1494,9.121201,-1.1166992,1.3545989999999999,1
1495,9.100845,-1.0616302,1.3809357,1
1496,9.154724,-1.0628357,1.418045,1
1497,9.213379,-1.1059265,1.3186951,1
1498,9.197815,-1.0747986,1.3139038,1
1499,9.136764999999999,-0.9730530000000001,1.3091125,1
1500,9.153519000000001,-0.95150757,1.3845367,1
1501,9.203796,-0.93115234,1.3785399999999999,1
1502,9.152328500000001,-1.0197449,1.3629761,1
1503,9.094864,-1.0688171,1.2839813,1
1504,9.12001,-1.0341034,1.3510132,1
1505,9.142746,-0.9838256999999999,1.3426361,1
1506,9.221756,-1.0221252,1.3426361,1
1507,9.194229,-1.0293120999999998,1.3258667,1
1508,9.145142,-0.97424316,1.2684174,1
1509,9.159514999999999,-0.99220276,1.3067169,1
1510,9.15831,-1.012558,1.2899628,1
1511,9.115219,-1.0652313,1.2600403,1
1512,9.131973,-1.0508575,1.3091125,1
1513,9.15831,-1.0448761,1.3115082,1
1514,9.201400999999999,-1.0137482,1.2863617,1
1515,9.179855,-1.0149536,1.2851715,1
1516,9.178664999999999,-1.0137482,1.270813,1
1517,9.117614999999999,-1.0460815,1.2408752,1
1518,9.15831,-1.0568541999999999,1.2779846000000001,1
1519,9.142746,-1.0951538,1.2408752,1
1520,9.154724,-1.0975494,1.1774292,1
1521,9.215775,-1.0640258999999999,1.1953888000000001,1
1522,9.236130000000001,-1.0329131999999999,1.207367,1
1523,9.179855,-1.0101624,1.2157440000000002,1
1524,9.152328500000001,-1.0544586,1.2839813,1
1525,9.189438,-1.0580444,1.207367,1
1526,9.201400999999999,-1.0831909,1.2301024999999999,1
1527,9.193024000000001,-0.9874115,1.2408752,1
1528,9.181061,-0.93115234,1.3270721,1
1529,9.137955,-0.8581238000000001,1.2887573,1
1530,9.12001,-0.80067444,1.3270721,1
1531,9.1128235,-0.77552795,1.334259,1
1532,9.224152,-0.8126373,1.3653716999999999,1
1533,9.251678,-0.89404297,1.2755889999999999,1
1534,9.172684,-0.9072113000000002,1.2337036,1
1535,9.105637,-0.87249756,1.3222809,1
1536,9.13916,-0.87968445,1.4120636,1
1537,9.188232000000001,-0.8593291999999999,1.3821411,1
1538,9.228943,-0.88087463,1.3821411,1
1539,9.159514999999999,-0.8688965,1.3893127,1
1540,9.154724,-0.8605193999999999,1.3845367,1
1541,9.143951,-0.8485565,1.3186951,1
1542,9.148727000000001,-0.917984,1.330658,1
1543,9.169083,-0.93115234,1.3378448,1
1544,9.133179,-0.9036255,1.3713684,1
1545,9.131973,-0.8569336,1.418045,1
1546,9.145142,-0.93833923,1.394104,1
1547,9.149933,-0.9215698,1.3809357,1
1548,9.121201,-0.9167938,1.3665771,1
1549,9.075714,-0.9431305,1.4204407,1
1550,9.094864,-0.94192505,1.5066376,1
1551,9.082901,-0.95150757,1.4898833999999999,1
1552,9.118805,-0.9790344000000001,1.4695281999999998,1
1553,9.135558999999999,-1.0113524999999999,1.4790955,1
1554,9.147537,-1.028122,1.4551544,1
1555,9.082901,-1.0652313,1.4240416999999999,1
1556,9.025436000000001,-1.1286774,1.3821411,1
1557,9.076903999999999,-1.1107178,1.4276276,1
1558,9.130783000000001,-1.0484619000000002,1.3785399999999999,1
1559,9.179855,-1.0137482,1.3845367,1
1560,9.206192,-1.0185394,1.3689728,1
1561,9.153519000000001,-1.0149536,1.3988953000000002,1
1562,9.135558999999999,-1.0197449,1.4395905,1
1563,9.157119999999999,-1.0760040000000002,1.4144591999999998,1
1564,9.134369,-1.111908,1.4707184,1
1565,9.154724,-1.1095276,1.449173,1
1566,9.135558999999999,-1.1238861,1.3833313,1
1567,9.080505,-1.1825409,1.4012909,1
1568,9.099655,-1.1645813,1.4479828000000001,1
1569,9.092467999999998,-1.1382446000000002,1.4204407,1
1570,9.141556,-1.2627563,1.3426361,1
1571,9.191833500000001,-1.4064026,1.3330536,1
1572,9.143951,-1.4195708999999999,1.339035,1
1573,9.088882,-1.3381653,1.3510132,1
1574,9.109222,-1.2711333999999999,1.3031311,1
1575,9.194229,-1.2064819,1.2217255,1
1576,9.212173,-1.234024,1.1546936,1
1577,9.167892,-1.2507781999999998,1.1510924999999999,1
1578,9.145142,-1.2807007,1.2324982,1
1579,9.099655,-1.278305,1.2372893999999999,1
1580,9.117614999999999,-1.3297881999999999,1.2013702,1
1581,9.159514999999999,-1.3309784,1.1714478000000002,1
1582,9.222961,-1.3441466999999998,1.1989746000000001,1
1583,9.189438,-1.3716888,1.1259613000000002,1
1584,9.172684,-1.3477478,1.1582794,1
1585,9.12001,-1.3297881999999999,1.1798248,1
1586,9.100845,-1.3058471999999999,1.2372893999999999,1
1587,9.121201,-1.3369751,1.1642609,1
1588,9.147537,-1.3740845,1.1905975,1
1589,9.184647,-1.3477478,1.1702576,1
1590,9.170288000000001,-1.3082428,1.0876465,1
1591,9.110428,-1.3058471999999999,1.0696868999999998,1
1592,9.12001,-1.3513336,1.0325775,1
1593,9.135558999999999,-1.4411163,1.018219,1
1594,9.163101,-1.4590758999999998,0.9775238000000002,1
1595,9.199005,-1.4004211000000002,0.9535674999999999,1
1596,9.188232000000001,-1.3513336,0.95477295,1
1597,9.23851,-1.2424011000000001,0.89372253,1
1598,9.220566,-1.1729736000000002,0.8410492,1
1599,9.163101,-1.1478271,0.9056854,1
1600,9.153519000000001,-1.155014,0.8985138,1
1601,9.173874,-1.190918,0.9416046,1
1602,9.091277999999999,-1.1490326000000002,0.8913269,1
1603,9.249298,-1.2400055,0.760849,1
1604,9.230133,-1.1993103,0.8266754000000001,1
1605,9.207397,-1.1741638,0.83865356,1
1606,9.242111,-1.1921233999999998,0.8266754000000001,1
1607,9.263657,-1.249588,0.7644348000000001,1
1608,9.191833500000001,-1.2364197000000001,0.70217896,1
1609,9.066132000000001,-1.2759247,0.61839294,1
1610,9.163101,-1.2388,0.8218994000000001,1
1611,9.244507,-1.333374,0.7345123,1
1612,9.155914,-1.3142242,0.72972107,1
1613,9.196625,-1.2771149,0.75605774,1
1614,9.164291,-1.2615508999999998,0.6638794,1
1615,9.215775,-1.2424011000000001,0.5920563,1
1616,9.21936,-1.1526184,0.54655457,1
1617,9.226547,-1.1693726,0.52381897,1
1618,9.178664999999999,-1.1741638,0.5597229,1
1619,9.2313385,-1.2172546,0.6064148,1
1620,9.257675,-1.2400055,0.5597229,1
1621,9.197815,-1.2962646,0.48431396,1
1622,9.184647,-1.2579651,0.43164063,1
1623,9.181061,-1.1765594,0.43164063,1
1624,9.23732,-1.1873322,0.3705902,1
1625,9.287598,-1.1322632,0.36221313,1
1626,9.245697,-1.1562042,0.40649414,1
1627,9.236130000000001,-1.1885223,0.37896729999999995,1
1628,9.201400999999999,-1.2507781999999998,0.40530396,1
1629,9.202606,-1.2639465,0.47712708,1
1630,9.224152,-1.2914733999999999,0.46276855,1
1631,9.248092999999999,-1.2998657,0.4807129,1
1632,9.216965,-1.3058471999999999,0.4220581,1
1633,9.199005,-1.2998657,0.45797730000000003,1
1634,9.131973,-1.2926788,0.44241333,1
1635,9.178664999999999,-1.2579651,0.46994020000000003,1
1636,9.292389,-1.2172546,0.47952269999999997,1
1637,9.343857,-1.2244415000000002,0.3777771,1
1638,9.23851,-1.3716888,0.33467102,1
1639,9.181061,-1.404007,0.4807129,1
1640,9.197815,-1.3740845,0.5202179,1
1641,9.272034,-1.3118286,0.38136292,1
1642,9.273239,-1.1777496,0.2341156,1
1643,9.178664999999999,-1.1203003,0.2700348,1
1644,9.193024000000001,-1.1442413,0.38136292,1
1645,9.285202,-1.2675323,0.40649414,1
1646,9.279221000000001,-1.2998657,0.41249084,1
1647,9.311539,-1.2986603,0.35144043,1
1648,9.234924000000001,-1.3273926,0.36698914,1
1649,9.153519000000001,-1.3561249,0.3538208,1
1650,9.166687,-1.3357697,0.42086792,1
1651,9.240905999999999,-1.2830963,0.46276855,1
1652,9.251678,-1.1035309,0.42445374,1
1653,9.262466,-0.9503021,0.48789978,1
1654,9.258865,-0.9562988000000001,0.57170105,1
1655,9.224152,-1.0412903,0.54177856,1
1656,9.240905999999999,-1.1190948,0.5549469,1
1657,9.218169999999999,-1.1789551,0.5669098000000001,1
1658,9.125992,-1.1454315000000002,0.45318604,1
1659,9.136764999999999,-0.99938965,0.45199585,1
1660,9.15831,-0.9574889999999999,0.3885498,1
1661,9.268448,-0.92996216,0.41607666,1
1662,9.287598,-0.8784790000000001,0.38494873,1
1663,9.216965,-0.9323425,0.36460876,1
1664,9.244507,-0.9335479999999999,0.42086792,1
1665,9.269638,-1.0317078000000002,0.47354126,1
1666,9.306747,-1.0736084,0.4986725,1
1667,9.245697,-1.1226958999999999,0.5274048000000001,1
1668,9.230133,-1.1394501,0.6207885999999999,1
1669,9.190628,-1.186142,0.7404938,1
1670,9.225342,-1.2902832,0.87457275,1
1671,9.262466,-1.2471923999999999,0.95477295,1
1672,9.33429,-1.0269165,0.89372253,1
1673,9.264847,-0.8533478000000001,0.75605774,1
1674,9.133179,-0.77552795,0.70098877,1
1675,9.092467999999998,-0.7048949999999999,0.7428894,1
1676,9.173874,-0.6007538,0.72372437,1
1677,9.187042,-0.62350464,0.59324646,1
1678,9.167892,-0.6426544,0.5118408,1
1679,9.153519000000001,-0.7048949999999999,0.57528687,1
1680,9.191833500000001,-0.7767334,0.6531066999999999,1
1681,9.274429,-0.91200256,0.5956421,1
1682,9.272034,-0.9287566999999999,0.6159973000000001,1
1683,9.23851,-0.89164734,0.6255646,1
1684,9.221756,-0.81144714,0.5561371,1
1685,9.240905999999999,-0.76116943,0.5693054,1
1686,9.239716,-0.7444,0.5848694000000001,1
1687,9.243300999999999,-0.72883606,0.5980376999999999,1
1688,9.244507,-0.7503966999999999,0.57528687,1
1689,9.25528,-0.71806335,0.602829,1
1690,9.243300999999999,-0.72883606,0.5776825,1
1691,9.222961,-0.76834106,0.55255127,1
1692,9.165497,-0.8138428000000001,0.60401917,1
1693,9.227737,-0.8856659,0.6267699999999999,1
1694,9.264847,-0.93833923,0.61839294,1
1695,9.304352,-0.9167938,0.56211853,1
1696,9.25647,-0.82940674,0.49627686,1
1697,9.230133,-0.838974,0.5202179,1
1698,9.201400999999999,-0.80784607,0.5190277,1
1699,9.213379,-0.74560547,0.42086792,1
1700,9.196625,-0.7048949999999999,0.36698914,1
1701,9.225342,-0.7563781999999999,0.38375854,1
1702,9.278015,-0.7695465,0.38615417,1
1703,9.275619500000001,-0.8186188,0.44241333,1
1704,9.261261,-0.8497466999999999,0.45318604,1
1705,9.268448,-0.8641205,0.5286102,1
1706,9.243300999999999,-0.8688965,0.45916748,1
1707,9.257675,-0.81144714,0.429245,1
1708,9.240905999999999,-0.7922821,0.45797730000000003,1
1709,9.257675,-0.8473511,0.4328308,1
1710,9.202606,-0.7731323,0.46754456,1
1711,9.215775,-0.74320984,0.44360352,1
1712,9.279221000000001,-0.838974,0.39453125,1
1713,9.281616,-0.8641205,0.2915802,1
1714,9.240905999999999,-0.80784607,0.36100770000000004,1
1715,9.282805999999999,-0.73602295,0.42684937,1
1716,9.278015,-0.74560547,0.36819458,1
1717,9.228943,-0.7276459,0.37538147,1
1718,9.249298,-0.7384185999999999,0.39932249999999997,1
1719,9.250488,-0.7048949999999999,0.4040985,1
1720,9.234924000000001,-0.6869506999999999,0.37657166,1
1721,9.29718,-0.660614,0.40649414,1
1722,9.260071,-0.6941223000000001,0.4184723,1
1723,9.286407,-0.71687317,0.42445374,1
1724,9.262466,-0.7084961,0.45558167,1
1725,9.279221000000001,-0.6522217,0.350235,1
1726,9.275619500000001,-0.6007538,0.32389832,1
1727,9.218169999999999,-0.581604,0.30833435,1
1728,9.213379,-0.5780029000000001,0.30714417,1
1729,9.244507,-0.60194397,0.27720642,1
1730,9.29718,-0.6007538,0.22094727,1
1731,9.288788,-0.54927063,0.15510559,1
1732,9.246902,-0.502594,0.20898438,1
1733,9.269638,-0.49061584,0.19700623,1
1734,9.254074000000001,-0.5672302,0.22573853,1
1735,9.263657,-0.6079406999999999,0.21736145,1
1736,9.252884,-0.5732269,0.19221497,1
1737,9.287598,-0.48104858,0.20898438,1
1738,9.228943,-0.46188354,0.24130249,1
1739,9.227737,-0.44631958,0.25805664,1
1740,9.203796,-0.53970337,0.34544373,1
1741,9.227737,-0.60554504,0.3885498,1
1742,9.264847,-0.6115265000000001,0.46156309999999995,1
1743,9.321121,-0.63905334,0.34304809999999997,1
1744,9.263657,-0.68814087,0.32987976,1
1745,9.234924000000001,-0.6653899999999999,0.31072998,1
1746,9.266052,-0.61750793,0.38615417,1
1747,9.279221000000001,-0.62709045,0.31910706,1
1748,9.266052,-0.6366729999999999,0.21017456,1
1749,9.166687,-0.6127166999999999,0.32748413,1
1750,9.236130000000001,-0.7084961,0.350235,1
1751,9.284011999999999,-0.7563781999999999,0.28559875,1
1752,9.276825,-0.72525024,0.2987671,1
1753,9.264847,-0.7192688,0.3095398,1
1754,9.267242,-0.7048949999999999,0.3203125,1
1755,9.260071,-0.6294860999999999,0.31193542,1
1756,9.257675,-0.56962585,0.24488829999999998,1
1757,9.292389,-0.50738525,0.19821167,1
1758,9.278015,-0.49061584,0.22215271,1
1759,9.249298,-0.5157623,0.22453308,1
1760,9.239716,-0.5241394,0.16229248,1
1761,9.23851,-0.55166626,0.16708374,1
1762,9.203796,-0.56604004,0.21496582,1
1763,9.23851,-0.55166626,0.19821167,1
1764,9.29718,-0.5241394,0.11920166,1
1765,9.299576,-0.5097656,0.16229248,1
1766,9.292389,-0.52893066,0.21496582,1
1767,9.25647,-0.4834442,0.24488829999999998,1
1768,9.25528,-0.42716980000000004,0.216156,1
1769,9.257675,-0.38287354,0.20059204,1
1770,9.227737,-0.3768921,0.2233429,1
1771,9.197815,-0.41041565,0.25447083,1
1772,9.252884,-0.43675232,0.23651123,1
1773,9.304352,-0.47265625,0.17785645,1
1774,9.313934,-0.41400146,0.1874237,1
1775,9.285202,-0.37809753,0.1946106,1
1776,9.23851,-0.42477417,0.171875,1
1777,9.243300999999999,-0.45231628,0.12876892,1
1778,9.305557,-0.47505188,0.07250976599999999,1
1779,9.3103485,-0.46308900000000003,0.03540039,1
1780,9.220566,-0.41520690000000005,0.04736328,1
1781,9.233734,-0.41760254,0.15750122,1
1782,9.343857,-0.39964294,0.101242065,1
1783,9.331894,-0.39245605,-0.035232544,1
1784,9.251678,-0.38647459999999995,-0.0017089844000000001,1
1785,9.157119999999999,-0.38168335,0.13116455,1
1786,9.248092999999999,-0.42716980000000004,0.12397766,1
1787,9.301956,-0.45111084,0.03779602,1
1788,9.280411,-0.40083313,-0.0005187988,1
1789,9.288788,-0.33380127,0.015045166,1
1790,9.263657,-0.32900999999999997,0.0138549805,1
1791,9.267242,-0.38526917,0.010253906,1
1792,9.295975,-0.41160583,-0.020858765,1
1793,9.266052,-0.36732483,-0.025650024,1
1794,9.194229,-0.31105042,-0.026855469,1
1795,9.212173,-0.32781982,-0.01727295,1
1796,9.2708435,-0.34576416,-0.047195435,1
1797,9.313934,-0.31105042,-0.020858765,1
1798,9.305557,-0.23803711,-0.01966858,1
1799,9.3103485,-0.2607727,-0.011291503999999999,1
1800,9.299576,-0.24641418,-0.0041046143,1
1801,9.245697,-0.25239563,0.034194946000000004,1
1802,9.210983,-0.23443604,0.086868286,1
1803,9.232529,-0.27754209999999996,0.091659546,1
1804,9.25528,-0.29190063,0.12757874,1
1805,9.252884,-0.26316833,0.03060913,1
1806,9.268448,-0.2571869,0.028213501000000002,1
1807,9.280411,-0.22845459,0.07130432,1
1808,9.3103485,-0.21170044,0.084472656,1
1809,9.263657,-0.22366333,0.03060913,1
1810,9.218169999999999,-0.19732666,-0.04121399,1
1811,9.244507,-0.17219543,-0.016082764,1
1812,9.249298,-0.20570374,-0.032836914,1
1813,9.236130000000001,-0.18296814,-0.05319214,1
1814,9.258865,-0.19972229,0.0054779053000000005,1
1815,9.340271000000001,-0.20930481,-0.035232544,1
1816,9.307953,-0.20092773,-0.09388733,1
1817,9.249298,-0.18057251,-0.037628174,1
1818,9.292389,-0.19134521,-0.007690429699999999,1
1819,9.29837,-0.20092773,-0.10346985,1
1820,9.258865,-0.21887207,-0.13697815,1
1821,9.200211,-0.19374084,-0.123809814,1
1822,9.21936,-0.16979979999999997,-0.073532104,1
1823,9.280411,-0.17219543,-0.047195435,1
1824,9.284011999999999,-0.17459106,-0.022064208999999998,1
1825,9.251678,-0.16261292,-0.032836914,1
1826,9.203796,-0.16142273,-0.10346985,1
1827,9.227737,-0.17578125,-0.13937378,1
1828,9.268448,-0.20570374,-0.10824585,1
1829,9.260071,-0.19374084,-0.15135193,1
1830,9.263657,-0.16740417,-0.14537048,1
1831,9.284011999999999,-0.21170044,-0.08430481,1
1832,9.343857,-0.16740417,-0.09867859,1
1833,9.313934,-0.12669373,-0.12860107,1
1834,9.23851,-0.11592102,-0.08670044,1
1835,9.23851,-0.15065002,-0.11663818,1
1836,9.260071,-0.23085022,-0.18127441,1
1837,9.263657,-0.29429626,-0.29260254,1
1838,9.252884,-0.31105042,-0.31654358,1
1839,9.300766000000001,-0.2799225,-0.22077942,1
1840,9.343857,-0.27633667,-0.08430481,1
1841,9.273239,-0.24401855,-0.040023803999999996,1
1842,9.263657,-0.21170044,-0.05796814,1
1843,9.287598,-0.15184021,-0.18965149,1
1844,9.254074000000001,-0.059661865,-0.17887878,1
1845,9.207397,-0.062057495,-0.04600525,1
1846,9.173874,-0.02015686,-0.049591064000000004,1
1847,9.21936,-0.12071228,-0.15493774,1
1848,9.233734,-0.21409607,-0.28422546,1
1849,9.299576,-0.16261292,-0.30458070000000004,1
1850,9.249298,-0.16979979999999997,-0.31414795,1
1851,9.213379,-0.17578125,-0.3440857,1
1852,9.232529,-0.20809937,-0.26986694,1
1853,9.336685000000001,-0.18176270000000003,-0.33570862,1
1854,9.416885,-0.13269043,-0.39675903,1
1855,9.419281,-0.10874939,-0.42428590000000005,1
1856,9.384567,-0.09437561,-0.30337524,1
1857,9.313934,-0.1015625,-0.27464294,1
1858,9.146347,-0.119522095,-0.29260254,1
1859,9.048172000000001,-0.071640015,-0.16212463,1
1860,9.172684,-0.026138306,-0.07473755,1
1861,9.304352,-0.06564331,-0.04840088,1
1862,9.365402,-0.083602905,-0.09388733,1
1863,9.3546295,-0.0728302,-0.080718994,1
1864,9.227737,-0.009384155,-0.12620544,1
1865,9.129578,0.014556885,-0.15853882,1
1866,9.129578,-0.03453064,-0.19204712,1
1867,9.228943,-0.028533936,-0.16091919,1
1868,9.282805999999999,-0.071640015,-0.16452026,1
1869,9.348647999999999,-0.12310791,-0.24353027,1
1870,9.418076,-0.13029480000000002,-0.27464294,1
1871,9.360626,-0.071640015,-0.40034485,1
1872,9.137955,0.083984375,-0.39915466,1
1873,9.0733185,0.09954834,-0.32254028,1
1874,9.114014,-0.05128479,-0.31295776,1
1875,9.305557,-0.14106749999999998,-0.3261261,1
1876,9.383362,-0.21409607,-0.31414795,1
1877,9.432449,-0.22726439999999998,-0.42189026,1
1878,9.416885,-0.29788208,-0.40034485,1
1879,9.401321000000001,-0.27754209999999996,-0.28781128,1
1880,9.282805999999999,-0.15423584,-0.06036377,1
1881,9.279221000000001,-0.06564331,0.06892395,1
1882,9.251678,0.0181427,0.05694580000000001,1
1883,9.2313385,-0.05368042,0.04258728,1
1884,9.210983,-0.18296814,0.08567810000000001,1
1885,9.172684,-0.17578125,0.048568726,1
1886,9.102051,-0.13148499,0.031814575,1
1887,9.093674,-0.050079346,0.050964355,1
1888,9.141556,0.10314941400000001,0.22932434,1
1889,9.194229,0.14982605,0.13476563,1
1890,9.215775,0.07081604,0.14791870000000001,1
1891,9.213379,0.05406189,0.24967957,1
1892,9.29718,-0.03453064,0.20777893,1
1893,9.340271000000001,-0.100372314,0.12278747599999999,1
1894,9.313934,-0.119522095,0.082092285,1
1895,9.246902,-0.088394165,0.14912415,1
1896,9.206192,-0.0440979,0.26643372,1
1897,9.189438,-0.047698975,0.29037476,1
1898,9.232529,-0.16740417,0.1946106,1
1899,9.288788,-0.16021729,0.15031433,1
1900,9.301956,-0.12071228,0.098846436,1
1901,9.260071,-0.064453125,0.12876892,1
1902,9.234924000000001,-0.050079346,0.09286499,1
1903,9.224152,-0.12310791,0.09046936,1
1904,9.280411,-0.13388062,0.07130432,1
1905,9.299576,-0.14585876,0.18383789,1
1906,9.281616,-0.14465332,0.21376038,1
1907,9.260071,-0.22247314,0.15989685,1
1908,9.218169999999999,-0.18415833,0.14912415,1
1909,9.274429,-0.15782166,0.16708374,1
1910,9.284011999999999,-0.11831665,0.27122498,1
1911,9.267242,-0.13627625,0.24369812,1
1912,9.227737,-0.17578125,0.22932434,1
1913,9.244507,-0.16979979999999997,0.24967957,1
1914,9.282805999999999,-0.10635376,0.24009705,1
1915,9.284011999999999,-0.13627625,0.12518310000000002,1
1916,9.258865,-0.20092773,0.10961914,1
1917,9.3151245,-0.25360107,0.089263916,1
1918,9.286407,-0.13508606,0.14791870000000001,1
1919,9.226547,-0.13388062,0.13835144,1
1920,9.214569000000001,-0.15065002,0.13954163,1
1921,9.262466,-0.20330810000000002,0.14433289,1
1922,9.286407,-0.22605896,0.11680603,1
1923,9.3546295,-0.17817688,0.12997437,1
1924,9.284011999999999,-0.16142273,0.11920166,1
1925,9.213379,-0.17219543,0.11920166,1
1926,9.224152,-0.14465332,0.19940186,1
1927,9.230133,-0.13148499,0.20658875,1
1928,9.313934,-0.14346313,0.15750122,1
1929,9.227737,-0.062057495,0.20538330000000002,1
1930,9.209793,-0.045303345,0.18383789,1
1931,9.284011999999999,-0.12310791,0.14912415,1
1932,9.351044,-0.16500854,0.14791870000000001,1
1933,9.293579,-0.16500854,0.04975891,1
1934,9.169083,-0.15423584,0.13116455,1
1935,9.245697,-0.20809937,0.16827393,1
1936,9.288788,-0.22845459,0.17306519,1
1937,9.254074000000001,-0.121917725,0.14912415,1
1938,9.248092999999999,-0.09437561,0.15750122,1
1939,9.224152,-0.12550354,0.16587829999999998,1
1940,9.291183,-0.14944458,0.13595581,1
1941,9.254074000000001,-0.19853210000000002,0.19581604,1
1942,9.246902,-0.19613647,0.17785645,1
1943,9.275619500000001,-0.16142273,0.20898438,1
1944,9.280411,-0.1877594,0.21496582,1
1945,9.294785000000001,-0.17219543,0.13476563,1
1946,9.196625,-0.18536377,0.12997437,1
1947,9.164291,-0.15423584,0.21017456,1
1948,9.215775,-0.11114502,0.26165770000000005,1
1949,9.300766000000001,-0.19013977,0.22215271,1
1950,9.31633,-0.26556396,0.11920166,1
1951,9.288788,-0.25,0.07130432,1
1952,9.29837,-0.13269043,0.060531615999999996,1
1953,9.321121,-0.14225769,0.046173096,1
1954,9.281616,-0.15184021,-0.012481688999999999,1
1955,9.207397,-0.12908936,-0.012481688999999999,1
1956,9.227737,-0.15663147,-0.0005187988,1
1957,9.264847,-0.16979979999999997,0.015045166,1
1958,9.295975,-0.21647644,0.019836426,1
1959,9.301956,-0.14465332,0.04736328,1
1960,9.225342,-0.13748169,0.04019165,1
1961,9.220566,-0.18415833,0.0006866455,1
1962,9.279221000000001,-0.23085022,0.07130432,1
1963,9.293579,-0.2320404,0.1874237,1
1964,9.258865,-0.13986206,0.2628479,1
1965,9.194229,-0.2212677,0.16468811,1
1966,9.160706,-0.27035522,0.10482788,1
1967,9.258865,-0.31704712,0.20777893,1
1968,9.293579,-0.30148315,0.13476563,1
1969,9.33548,-0.26914978,-0.01008606,1
1970,9.294785000000001,-0.1877594,-0.073532104,1
1971,9.254074000000001,-0.05607605,0.048568726,1
1972,9.233734,-0.06564331,0.041381836,1
1973,9.275619500000001,-0.13867188,-0.073532104,1
1974,9.226547,-0.08241272,-0.10107422,1
1975,9.236130000000001,-0.035720825,-0.080718994,1
1976,9.232529,-0.02494812,-0.025650024,1
1977,9.246902,-0.09677124,-0.073532104,1
1978,9.251678,-0.11831665,-0.042419434000000006,1
1979,9.257675,-0.11592102,-0.01727295,1
1980,9.278015,-0.07762146,0.05215454,1
1981,9.233734,-0.078811646,0.079696655,1
1982,9.264847,-0.08480835,0.0054779053000000005,1
1983,9.311539,-0.07641601599999999,-0.08430481,1
1984,9.258865,-0.08720398,-0.06515503,1
1985,9.258865,-0.090789795,0.011459351000000001,1
1986,9.266052,-0.12071228,-0.024459839,1
1987,9.281616,-0.08480835,-0.01727295,1
1988,9.252884,-0.109939575,-0.0053100586,1
1989,9.280411,-0.13269043,-0.0017089844000000001,1
1990,9.279221000000001,-0.15303039999999998,0.019836426,1
1991,9.261261,-0.21528625,0.011459351000000001,1
1992,9.266052,-0.24281311,-0.023254395,1
1993,9.234924000000001,-0.20330810000000002,-0.037628174,1
1994,9.225342,-0.15542603,0.019836426,1
1995,9.25647,-0.15542603,0.07369995,1
1996,9.3498535,-0.22605896,0.04258728,1
1997,9.325911999999999,-0.22486877,-0.087905884,1
1998,9.222961,-0.16381836,-0.028045654,1
1999,9.183456,-0.05128479,0.079696655,1
2000,9.305557,-0.016571045,0.055755615,1
2001,9.3103485,-0.107543945,-0.01008606,1
2002,9.23851,-0.18415833,0.019836426,1
2003,9.269638,-0.1877594,0.05694580000000001,1
2004,9.319916000000001,-0.17219543,-0.01966858,1
2005,9.194229,-0.14225769,-0.063964844,1
2006,9.175064,-0.13388062,0.07369995,1
2007,9.258865,-0.20570374,0.14672852,1
2008,9.431244,-0.21289063,0.036590576,1
2009,9.347458,-0.11831665,0.007858275999999999,1
2010,9.165497,-0.15065002,0.08328247,1
2011,9.143951,-0.21887207,0.106033325,1
2012,9.333084,-0.21887207,0.010253906,1
2013,9.378571,-0.11831665,-0.018478394,1
2014,9.262466,-0.05128479,0.036590576,1
2015,9.151123,-0.062057495,0.07250976599999999,1
2016,9.212173,-0.14465332,0.043777465999999994,1
2017,9.363022,-0.17459106,-0.014877318999999998,1
2018,9.437241,-0.10874939,0.019836426,1
2019,9.220566,-0.093185425,0.13595581,1
2020,9.063736,-0.09916687,0.07849121,1
2021,9.151123,-0.15782166,0.074905396,1
2022,9.31752,-0.121917725,0.031814575,1
2023,9.318726,-0.13269043,0.015045166,1
2024,9.251678,-0.11831665,0.015045166,1
2025,9.221756,-0.17936707,0.038986206,1
2026,9.269638,-0.19732666,0.012649536000000001,1
2027,9.327103,-0.20690918,-0.011291503999999999,1
2028,9.347458,-0.14346313,-0.020858765,1
2029,9.25528,-0.102752686,-0.025650024,1
2030,9.23851,-0.119522095,0.050964355,1
2031,9.243300999999999,-0.15782166,0.023422241,1
2032,9.266052,-0.18057251,0.04736328,1
2033,9.262466,-0.15663147,0.05215454,1
2034,9.275619500000001,-0.16381836,0.14193726,1
2035,9.216965,-0.17459106,0.20059204,1
2036,9.251678,-0.1925354,0.14791870000000001,1
2037,9.249298,-0.15663147,0.13356018,1
2038,9.187042,-0.20809937,0.13954163,1
2039,9.292389,-0.17817688,0.11201477,1
2040,9.361816000000001,-0.18176270000000003,0.025817871000000003,1
2041,9.348647999999999,-0.19732666,0.022232056,1
2042,9.268448,-0.16142273,-0.01727295,1
2043,9.166687,-0.14465332,0.04258728,1
2044,9.267242,-0.19972229,0.09764099,1
2045,9.287598,-0.13269043,0.103637695,1
2046,9.245697,-0.1590271,0.07609558,1
2047,9.232529,-0.12310791,0.055755615,1
2048,9.263657,-0.08958435,0.050964355,1
2049,9.272034,-0.15663147,0.079696655,1
2050,9.266052,-0.24641418,0.09405517599999999,1
2051,9.280411,-0.25120544,0.10722351,1
2052,9.228943,-0.20690918,0.18862915,1
2053,9.240905999999999,-0.210495,0.21975708,1
2054,9.304352,-0.20330810000000002,0.13116455,1
2055,9.281616,-0.14585876,0.046173096,1
2056,9.257675,-0.109939575,0.10961914,1
2057,9.261261,-0.15184021,0.08328247,1
2058,9.263657,-0.18057251,0.06292724599999999,1
2059,9.25647,-0.20092773,0.101242065,1
2060,9.280411,-0.18296814,0.15151978,1
2061,9.244507,-0.16619873,0.137146,1
2062,9.233734,-0.14704895,0.1539154,1
2063,9.286407,-0.18176270000000003,0.14074707,1
2064,9.2708435,-0.11352539,0.18862915,1
2065,9.272034,-0.14465332,0.20658875,1
2066,9.327103,-0.19853210000000002,0.20059204,1
2067,9.306747,-0.2212677,0.22573853,1
2068,9.230133,-0.19732666,0.19102478,1
2069,9.173874,-0.210495,0.19821167,1
2070,9.190628,-0.18415833,0.171875,1
2071,9.209793,-0.15663147,0.08088684,1
2072,9.275619500000001,-0.19853210000000002,-0.032836914,1
2073,9.250488,-0.16261292,-0.022064208999999998,1
2074,9.286407,-0.14106749999999998,0.06292724599999999,1
2075,9.279221000000001,-0.18536377,0.04736328,1
2076,9.340271000000001,-0.18057251,0.089263916,1
2077,9.31633,-0.31704712,-0.03642273,1
2078,9.252884,-0.4044342,-0.23873901,1
2079,9.327103,-0.43315125,-0.14537048,1
2080,9.369003,-0.2799225,-0.025650024,1
2081,9.312744,-0.14585876,0.108428955,1
2082,9.215775,-0.14585876,0.2915802,1
2083,9.187042,-0.25958252,0.44001769999999996,1
2084,9.171478,-0.32063293,0.40649414,1
2085,9.230133,-0.31105042,0.35621643,1
2086,9.230133,-0.29548645,0.27243042,1
2087,9.281616,-0.25,0.1874237,1
2088,9.322311000000001,-0.19013977,0.15270996,1
2089,9.3103485,-0.109939575,0.2520752,1
2090,9.321121,-0.18415833,0.34544373,1
2091,9.242111,-0.22605896,0.39453125,1
2092,9.274429,-0.25360107,0.41249084,1
2093,9.360626,-0.42837524,0.11441040000000001,1
2094,9.281616,-0.6929320999999999,-0.28543090000000004,1
2095,9.266052,-0.6821594,-0.25190735,1
2096,9.291183,-0.43554688,0.120391846,1
2097,9.275619500000001,-0.24401855,0.44839478,1
2098,9.216965,-0.22845459,0.5860595999999999,1
2099,9.135558999999999,-0.3697052,0.60401917,1
2100,9.181061,-0.46907043,0.49748230000000004,1
2101,9.215775,-0.5313263,0.54655457,1
2102,9.245697,-0.5277251999999999,0.5381775,1
2103,9.207397,-0.5061798,0.6279602,1
2104,9.281616,-0.5145569000000001,0.8123169,1
2105,9.258865,-0.42597959999999996,0.84942627,1
2106,9.161896,-0.43554688,0.7728119000000001,1
2107,9.17746,-0.46788025,0.78479004,1
2108,9.148727000000001,-0.5456848000000001,0.7177429,1
2109,9.222961,-0.67736816,0.8123169,1
2110,9.287598,-0.77552795,0.7823944,1
2111,9.311539,-0.8425598,0.69859314,1
2112,9.258865,-0.8317870999999999,0.76802063,1
2113,9.193024000000001,-0.79467773,0.8410492,1
2114,9.169083,-0.80545044,0.84942627,1
2115,9.199005,-0.8988341999999999,0.76802063,1
2116,9.23851,-0.89404297,0.83506775,1
2117,9.267242,-0.9167938,0.8590088,1
2118,9.216965,-0.91200256,0.8925171000000001,1
2119,9.227737,-0.87368774,0.9272461,1
2120,9.195419000000001,-0.80307007,0.97273254,1
2121,9.196625,-0.6917267,0.9404144,1
2122,9.17627,-0.6426544,0.8554076999999999,1
2123,9.221756,-0.7001189999999999,0.83625793,1
2124,9.275619500000001,-0.7228545999999999,0.85661316,1
2125,9.254074000000001,-0.7408142,0.77879333,1
2126,9.185837,-0.8066559,0.8518219000000001,1
2127,9.146347,-0.8772888000000001,0.8841399999999999,1
2128,9.203796,-0.8964386000000001,0.85780334,1
2129,9.249298,-0.8485565,0.80633545,1
2130,9.281616,-0.70370483,0.8506316999999999,1
2131,9.254074000000001,-0.6402588,0.8302765,1
2132,9.210983,-0.73602295,0.8326720999999999,1
2133,9.185837,-0.88087463,0.86857605,1
2134,9.181061,-0.9371338,0.93681335,1
2135,9.17627,-0.88087463,0.9822998,1
2136,9.216965,-0.8210144,1.0649108999999999,1
2137,9.246902,-0.6869506999999999,1.0649108999999999,1
2138,9.17627,-0.6689911000000001,1.0050507,1
2139,9.21936,-0.69532776,0.9739226999999999,1
2140,9.17746,-0.68574524,1.0301970999999999,1
2141,9.17746,-0.6761626999999999,1.0433502000000001,1
2142,9.191833500000001,-0.76475525,1.0936431999999998,1
2143,9.213379,-0.82341003,1.0541382,1
2144,9.200211,-0.7910919,1.0122375,1
2145,9.173874,-0.76116943,1.0278015,1
2146,9.225342,-0.7958831999999999,0.9308318999999999,1
2147,9.291183,-0.8784790000000001,0.9380188,1
2148,9.23732,-0.9143982,1.0158234,1
2149,9.136764999999999,-0.8569336,1.0577239999999999,1
2150,9.121201,-0.8270110999999999,1.0517426,1
2151,9.193024000000001,-0.74560547,0.978714,1
2152,9.2708435,-0.66778564,0.9451904000000001,1
2153,9.214569000000001,-0.7120819,1.0002594,1
2154,9.155914,-0.8270110999999999,1.1103973,1
2155,9.149933,-0.7336273,1.1702576,1
2156,9.116408999999999,-0.6618042,1.1594696000000002,1
2157,9.161896,-0.5851898,1.1032104,1
2158,9.195419000000001,-0.63905334,1.0014648000000002,1
2159,9.189438,-0.7084961,1.04216,1
2160,9.187042,-0.74679565,1.1080017,1
2161,9.182250999999999,-0.6653899999999999,1.0517426,1
2162,9.161896,-0.6713866999999999,1.0577239999999999,1
2163,9.183456,-0.63427734,1.0230103000000002,1
2164,9.171478,-0.62709045,1.0445556999999999,1
2165,9.152328500000001,-0.58639526,1.0433502000000001,1
2166,9.164291,-0.54808044,1.0900421,1
2167,9.262466,-0.50738525,1.1846161,1
2168,9.262466,-0.6522217,1.1295471000000001,1
2169,9.169083,-0.7886963,1.0529327,1
2170,9.106842,-0.8282013,0.9918823,1
2171,9.137955,-0.660614,1.0553284,1
2172,9.21936,-0.6498413000000001,1.04216,1
2173,9.254074000000001,-0.7384185999999999,1.0098419,1
2174,9.282805999999999,-0.9143982,0.98469543,1
2175,9.218169999999999,-0.9838256999999999,1.0373688,1
2176,9.202606,-0.9574889999999999,1.018219,1
2177,9.201400999999999,-0.8569336,0.9595642,1
2178,9.214569000000001,-0.8018645999999999,1.0038605,1
2179,9.228943,-0.7108916999999999,1.0194092,1
2180,9.165497,-0.7444,1.0170288,1
2181,9.173874,-0.71687317,1.0206146,1
2182,9.166687,-0.6402588,1.0313873,1
2183,9.209793,-0.6187134,0.9463959000000001,1
2184,9.23732,-0.59835815,1.0373688,1
2185,9.17746,-0.65701294,1.0720825,1
2186,9.224152,-0.7024994000000001,1.0792694,1
2187,9.269638,-0.7671509,1.0325775,1
2188,9.222961,-0.80784607,0.9380188,1
2189,9.167892,-0.7982788000000001,0.9918823,1
2190,9.108032000000001,-0.69532776,1.0888518999999999,1
2191,9.110428,-0.64863586,1.1546936,1
2192,9.149933,-0.6330719,1.1020203000000002,1
2193,9.23732,-0.5792084,1.1091919,1
2194,9.2313385,-0.51097107,1.0218048,1
2195,9.182250999999999,-0.5157623,0.9056854,1
2196,9.165497,-0.5049895999999999,0.87457275,1
2197,9.181061,-0.52653503,0.8530120999999999,1
2198,9.218169999999999,-0.5133667000000001,0.86499023,1
2199,9.261261,-0.46188354,0.8087310999999999,1
2200,9.280411,-0.42477417,0.7763977,1
2201,9.246902,-0.39604187,0.72972107,1
2202,9.226547,-0.40083313,0.7752074999999999,1
2203,9.214569000000001,-0.4451294,0.78118896,1
2204,9.213379,-0.5217438,0.78118896,1
2205,9.279221000000001,-0.49661255,0.67344666,1
2206,9.294785000000001,-0.4738617,0.61120605,1
2207,9.226547,-0.41760254,0.6363373000000001,1
2208,9.207397,-0.49661255,0.6650696,1
2209,9.228943,-0.5205536000000001,0.69740295,1
2210,9.185837,-0.5708313,0.6602783,1
2211,9.183456,-0.6330719,0.67344666,1
2212,9.2313385,-0.64624023,0.6770477,1
2213,9.295975,-0.61990356,0.6483154000000001,1
2214,9.278015,-0.5827941999999999,0.62316895,1
2215,9.261261,-0.6294860999999999,0.5980376999999999,1
2216,9.224152,-0.5935669,0.61839294,1
2217,9.207397,-0.542099,0.6243744000000001,1
2218,9.232529,-0.50857544,0.63275146,1
2219,9.258865,-0.47265625,0.642334,1
2220,9.31752,-0.3876648,0.58966064,1
2221,9.263657,-0.38526917,0.59324646,1
2222,9.246902,-0.34576416,0.5704956,1
2223,9.275619500000001,-0.35055542,0.47233582,1
2224,9.287598,-0.40802002,0.34544373,1
2225,9.278015,-0.39126587,0.39572144,1
2226,9.276825,-0.38526917,0.508255,1
2227,9.25647,-0.39724729999999997,0.56811523,1
2228,9.227737,-0.3469696,0.5920563,1
2229,9.200211,-0.34217834,0.59085083,1
2230,9.216965,-0.33859253,0.6566925,1
2231,9.171478,-0.40802002,0.760849,1
2232,9.137955,-0.39485168,0.765625,1
2233,9.099655,-0.43315125,0.7033844,1
2234,9.148727000000001,-0.4379425,0.6710663,1
2235,9.226547,-0.47265625,0.7225342,1
2236,9.321121,-0.5205536000000001,0.721344,1
2237,9.342667,-0.47865295,0.6279602,1
2238,9.287598,-0.47146606,0.4388275,1
2239,9.245697,-0.53730774,0.39811707,1
2240,9.233734,-0.55526733,0.35263062,1
2241,9.249298,-0.5672302,0.45677185,1
2242,9.319916000000001,-0.54689026,0.32150270000000003,1
2243,9.284011999999999,-0.58039856,0.27482605,1
2244,9.3498535,-0.5935669,0.40649414,1
2245,9.398926,-0.6701813,0.41607666,1
2246,9.319916000000001,-0.66300964,0.27482605,1
2247,9.249298,-0.72883606,0.20777893,1
2248,9.292389,-0.83299255,0.30474854,1
2249,9.258865,-0.7372284,0.4328308,1
2250,9.254074000000001,-0.6127166999999999,0.6064148,1
2251,9.154724,-0.48223877,0.70098877,1
2252,9.128387,-0.5313263,0.76683044,1
2253,9.127182000000001,-0.6222991999999999,0.9799041999999999,1
2254,9.114014,-0.6079406999999999,1.1475066999999999,1
2255,9.191833500000001,-0.5851898,1.0385742,1
2256,9.322311000000001,-0.48942566,0.86857605,1
2257,9.31752,-0.4846344,0.765625,1
2258,9.221756,-0.50138855,0.78118896,1
2259,9.187042,-0.45710754,0.87815857,1
2260,9.21936,-0.4738617,0.89372253,1
2261,9.216965,-0.4738617,0.7345123,1
2262,9.201400999999999,-0.5241394,0.69140625,1
2263,9.220566,-0.5432892,0.7357024999999999,1
2264,9.23851,-0.5600586,0.7931670999999999,1
2265,9.266052,-0.6366729999999999,0.7644348000000001,1
2266,9.232529,-0.61631775,0.77041626,1
2267,9.202606,-0.56843567,0.7799988,1
2268,9.149933,-0.5145569000000001,0.8159026999999999,1
2269,9.153519000000001,-0.46548462,0.8302765,1
2270,9.193024000000001,-0.44631958,0.79196167,1
2271,9.200211,-0.5349121,0.8123169,1
2272,9.239716,-0.5744170999999999,0.8482360999999999,1
2273,9.251678,-0.6007538,0.8590088,1
2274,9.221756,-0.6103363,0.8410492,1
2275,9.163101,-0.5444945999999999,0.8111267,1
2276,9.165497,-0.6127166999999999,0.78837585,1
2277,9.209793,-0.6426544,0.7907715,1
2278,9.244507,-0.64624023,0.84584045,1
2279,9.250488,-0.6127166999999999,0.80992126,1
2280,9.233734,-0.6402588,0.8230896000000001,1
2281,9.215775,-0.6582184,0.78118896,1
2282,9.239716,-0.6977234,0.72612,1
2283,9.228943,-0.7096863,0.7464751999999999,1
2284,9.216965,-0.6821594,0.7967529000000001,1
2285,9.194229,-0.63067627,0.76683044,1
2286,9.200211,-0.58877563,0.8338623,1
2287,9.202606,-0.60554504,0.7799988,1
2288,9.23851,-0.62828064,0.76683044,1
2289,9.239716,-0.660614,0.81710815,1
2290,9.25647,-0.6833496,0.7931670999999999,1
2291,9.273239,-0.70370483,0.82429504,1
2292,9.287598,-0.6761626999999999,0.7692260999999999,1
2293,9.251678,-0.6989135999999999,0.765625,1
2294,9.226547,-0.64505005,0.8314666999999999,1
2295,9.191833500000001,-0.6187134,0.84584045,1
2296,9.161896,-0.61631775,0.844635,1
2297,9.136764999999999,-0.6139220999999999,0.89730835,1
2298,9.151123,-0.5384979,0.9751281999999999,1
2299,9.197815,-0.45350647,0.9894867,1
2300,9.151123,-0.46548462,0.8601989999999999,1
2301,9.172684,-0.46907043,0.8111267,1
2302,9.185837,-0.49061584,0.9535674999999999,1
2303,9.249298,-0.50019836,1.0242004,1
2304,9.239716,-0.45231628,0.9523773000000001,1
2305,9.195419000000001,-0.49661255,0.8338623,1
2306,9.157119999999999,-0.5444945999999999,0.8254851999999999,1
2307,9.179855,-0.56843567,0.8709716999999999,1
2308,9.185837,-0.5708313,0.82907104,1
2309,9.200211,-0.5780029000000001,0.7225342,1
2310,9.258865,-0.5720215,0.66986084,1
2311,9.328292999999999,-0.5564574999999999,0.7117614999999999,1
2312,9.343857,-0.59477234,0.71055603,1
2313,9.264847,-0.5959625,0.6207885999999999,1
2314,9.221756,-0.6246948,0.6471100000000001,1
2315,9.201400999999999,-0.63786316,0.73928833,1
2316,9.197815,-0.63427734,0.75845337,1
2317,9.220566,-0.6498413000000001,0.8254851999999999,1
2318,9.226547,-0.6115265000000001,0.7799988,1
2319,9.228943,-0.6187134,0.73928833,1
2320,9.225342,-0.6414489999999999,0.72972107,1
2321,9.212173,-0.6414489999999999,0.74528503,1
2322,9.23732,-0.58399963,0.71894836,1
2323,9.29837,-0.5564574999999999,0.61958313,1
2324,9.294785000000001,-0.5432892,0.56811523,1
2325,9.275619500000001,-0.47265625,0.62197876,1
2326,9.25647,-0.43675232,0.72372437,1
2327,9.234924000000001,-0.53012085,0.7763977,1
2328,9.199005,-0.6127166999999999,0.7177429,1
2329,9.240905999999999,-0.7982788000000001,0.7033844,1
2330,9.251678,-0.838974,0.78837585,1
2331,9.215775,-0.8162384,0.91407776,1
2332,9.209793,-0.6905365,0.9751281999999999,1
2333,9.17746,-0.5325165,0.9404144,1
2334,9.166687,-0.5540619000000001,0.9775238000000002,1
2335,9.160706,-0.60194397,1.0146332,1
2336,9.129578,-0.5432892,0.96315,1
2337,9.239716,-0.53970337,0.9595642,1
2338,9.23732,-0.50738525,0.91885376,1
2339,9.203796,-0.46548462,0.8266754000000001,1
2340,9.199005,-0.44992065,0.7728119000000001,1
2341,9.173874,-0.40203857,0.79556274,1
2342,9.165497,-0.32421875,0.76322937,1
2343,9.227737,-0.2966919,0.721344,1
2344,9.245697,-0.25958252,0.6950073,1
2345,9.275619500000001,-0.27514648,0.6770477,1
2346,9.248092999999999,-0.32302856,0.6064148,1
2347,9.246902,-0.3589325,0.5968323,1
2348,9.250488,-0.40802002,0.6926116999999999,1
2349,9.260071,-0.46308900000000003,0.7512665,1
2350,9.200211,-0.5744170999999999,0.7823944,1
2351,9.146347,-0.70729065,0.78479004,1
2352,9.175064,-0.81144714,0.8590088,1
2353,9.210983,-0.7910919,0.9009094000000001,1
2354,9.244507,-0.7815094,0.8254851999999999,1
2355,9.245697,-0.77911377,0.8518219000000001,1
2356,9.252884,-0.8353881999999999,0.9009094000000001,1
2357,9.258865,-0.8868560999999999,0.93322754,1
2358,9.254074000000001,-0.9359436,0.8721771,1
2359,9.249298,-0.9060210999999999,0.73091125,1
2360,9.257675,-0.77552795,0.64352417,1
2361,9.31633,-0.64863586,0.6770477,1
2362,9.263657,-0.4834442,0.70936584,1
2363,9.243300999999999,-0.33021545,0.6351471,1
2364,9.266052,-0.21289063,0.6566925,1
2365,9.295975,-0.08720398,0.58966064,1
2366,9.243300999999999,-0.07641601599999999,0.48670959999999996,1
2367,9.191833500000001,-0.15303039999999998,0.49150085,1
2368,9.145142,-0.31704712,0.5704956,1
2369,9.141556,-0.6187134,0.7333069000000001,1
2370,9.170288000000001,-0.85095215,0.87815857,1
2371,9.263657,-0.77552795,0.90689087,1
2372,9.328292999999999,-0.58399963,0.93681335,1
2373,9.33548,-0.36253357,0.9344177,1
2374,9.257675,-0.25239563,0.9451904000000001,1
2375,9.086487,-0.28471375,0.96913147,1
2376,9.050568,-0.40083313,0.8590088,1
2377,9.169083,-0.61990356,0.8721771,1
2378,9.191833500000001,-0.73602295,0.9020995999999999,1
2379,9.222961,-0.7910919,0.8518219000000001,1
2380,9.224152,-0.8377838,0.8625946,1
2381,9.2313385,-0.8701019,0.8230896000000001,1
2382,9.305557,-0.81503296,0.7752074999999999,1
2383,9.261261,-0.6977234,0.70936584,1
2384,9.258865,-0.6354675,0.69859314,1
2385,9.242111,-0.6474456999999999,0.67344666,1
2386,9.227737,-0.6869506999999999,0.65071106,1
2387,9.212173,-0.6725769,0.67225647,1
2388,9.242111,-0.63427734,0.6938019,1
2389,9.261261,-0.5456848000000001,0.72013855,1
2390,9.280411,-0.50857544,0.70217896,1
2391,9.262466,-0.502594,0.7321167,1
2392,9.249298,-0.5049895999999999,0.7464751999999999,1
2393,9.214569000000001,-0.5049895999999999,0.72732544,1
2394,9.213379,-0.49780273,0.7069701999999999,1
2395,9.165497,-0.49780273,0.72732544,1
2396,9.189438,-0.4846344,0.6650696,1
2397,9.202606,-0.46188354,0.62197876,1
2398,9.103241,-0.5037842,0.66267395,1
2399,9.151123,-0.5325165,0.44720459999999995,1
2400,9.322311000000001,-0.41520690000000005,0.38974000000000003,1
2401,9.673065,-0.21768188,0.21496582,1
2402,9.881363,-0.038116455,0.34544373,1
2403,9.9077,-0.083602905,0.77760315,1
2404,9.049377,-0.5456848000000001,1.4001006999999999,1
2405,22.652039000000002,-1.8074341,5.0572357000000006,1
2406,11.548919999999999,0.25277710000000003,4.2061005,1
2407,14.491394,-0.7982788000000001,-4.270569,1
2408,5.672348,-0.83299255,0.67225647,1
2409,3.92099,-1.1789551,2.242859,1
2410,4.928955,-1.2447968,2.7468262,1
2411,8.436461999999999,-0.5600586,2.0405425999999998,1
2412,10.218948,-0.6043396,1.2169341999999999,1
2413,9.558136,-0.63427734,0.98709106,1
2414,9.093674,-0.5277251999999999,1.2025757,1
2415,9.054169,-0.43077087,1.3988953000000002,1
2416,9.021835000000001,-0.44154358,1.5545197,1
2417,9.194229,-0.621109,1.6215515,1
2418,9.307953,-0.64624023,1.5305786,1
2419,9.200211,-0.6414489999999999,1.5030518,1
2420,9.080505,-0.581604,1.7376709,1
2421,9.050568,-0.68574524,1.8549957,1
2422,9.197815,-0.82580566,1.9962463,1
2423,9.197815,-0.79348755,2.0201874,1
2424,8.966782,-0.7300415,1.8980865000000002,1
2425,8.891357000000001,-0.6977234,1.9184418,1
2426,8.861435,-0.75398254,1.8932953000000001,1
2427,8.879379,-0.84376526,2.0441284,1
2428,9.021835000000001,-0.9539032,2.1506805,1
2429,8.971558,-0.9981841999999999,2.1027985,1
2430,8.977554,-1.0053710999999999,2.1518707000000004,1
2431,9.100845,-0.9945984,2.062088,1
2432,9.088882,-0.8856659,2.0010376,1
2433,9.048172000000001,-0.8425598,1.9950561999999998,1
2434,8.995499,-0.92277527,2.0716705,1
2435,9.130783000000001,-1.0185394,2.1758118,1
2436,9.234924000000001,-1.0484619000000002,2.2596130000000003,1
2437,9.221756,-0.9682617,2.204544,1
2438,9.240905999999999,-0.84376526,2.0980072,1
2439,9.244507,-0.58877563,2.117157,1
2440,9.0972595,-0.368515,2.1698303,1
2441,9.103241,-0.47505188,2.282364,1
2442,9.037399,-0.81144714,2.409256,1
2443,8.814743,-1.1454315000000002,2.5086060000000003,1
2444,8.693832,-1.412384,2.666626,1
2445,8.633987,-1.506958,2.5732574,1
2446,8.772842,-1.2651367,2.5145874,1
2447,8.733336999999999,-0.9550934000000001,2.5995939999999997,1
2448,8.865021,-0.9167938,2.5935973999999997,1
2449,8.942825,-0.85453796,2.4523467999999995,1
2450,9.009872,-0.78990173,2.3817139,1
2451,9.024231,-0.8473511,2.362564,1
2452,8.928467,-0.9251709000000001,2.4104462000000004,1
2453,8.887772,-1.131073,2.4547423999999998,1
2454,9.051772999999999,-1.2064819,2.6414948,1
2455,8.868607,-1.0783996999999999,2.611557,1
2456,8.751297000000001,-0.9000244000000001,2.6618347,1
2457,8.748901,-0.80426025,2.6486664,1
2458,8.540604,-0.8377838,2.675003,1
2459,8.7417145,-0.8569336,2.8222504,1
2460,9.042191,-0.8928528,2.943161,1
2461,8.696228,-1.0831909,3.0125884999999997,1
2462,8.614822,-1.1203003,3.224472,1
2463,8.734542999999999,-0.95988464,3.216095,1
2464,8.711791999999999,-1.0149536,3.1466675,1
2465,8.56575,-0.97184753,3.1239166000000003,1
2466,8.678268,-1.0951538,3.2759552000000003,1
2467,8.46759,-1.0747986,3.188568,1
2468,8.662704,-1.1837463,3.3106690000000003,1
2469,8.637573,-1.3010559,3.1753998,1
2470,8.750107,-1.2471923999999999,3.1131439999999997,1
2471,8.696228,-1.1669768999999999,3.0209656000000003,1
2472,8.751297000000001,-1.194519,2.9359741,1
2473,8.82312,-1.1190948,2.9024506000000003,1
2474,8.740524,-0.9934082000000001,2.9419556,1
2475,8.825516,-0.9503021,2.9874419999999997,1
2476,8.829102,-0.9682617,3.0018158,1
2477,8.7656555,-0.9562988000000001,3.0149841,1
2478,8.790802000000001,-0.9910126,2.9084472999999997,1
2479,8.793198,-1.1502228,2.9024506000000003,1
2480,8.763275,-1.1837463,2.923996,1
2481,8.777633999999999,-1.1585999,2.955124,1
2482,8.809952000000001,-1.1406403,2.8414001,1
2483,8.826721000000001,-1.0341034,2.7827453999999996,1
2484,8.84227,-0.9838256999999999,2.8138732999999996,1
2485,8.857834,-0.95150757,2.793518,1
2486,8.837494,-1.0029755,2.8018951000000003,1
2487,8.836288,-1.0927582,2.7145080000000004,1
2488,8.908112,-1.0855713,2.619934,1
2489,8.92009,-1.0185394,2.5241700000000002,1
2490,8.932053,-0.9730530000000001,2.5624847,1
2491,9.00029,-0.9107970999999999,2.5217742999999997,1
2492,8.797989,-0.91319275,2.4164276,1
2493,8.789597,-1.012558,2.4595337,1
2494,8.92128,-0.9730530000000001,2.4834747000000004,1
2495,9.026627000000001,-0.8593291999999999,2.4595337,1
2496,8.970367,-0.7958831999999999,2.429596,1
2497,8.930862,-0.8688965,2.3984832999999997,1
2498,8.911713,-0.98861694,2.4128418,1
2499,8.916504,-1.0077667,2.3972778,1
2500,8.868607,-1.0616302,2.3709412,1
2501,8.923675999999999,-1.0963593,2.3613586,1
2502,8.957199000000001,-1.0843811,2.4128418,1
2503,8.977554,-1.0053710999999999,2.4200287,1
2504,8.978744500000001,-0.9550934000000001,2.390091,1
2505,8.946425999999999,-0.90242004,2.3410187000000002,1
2506,8.9991,-0.83418274,2.2524261,1
2507,9.002686,-0.8772888000000001,2.247635,1
2508,9.013458,-0.89164734,2.2739716,1
2509,9.014664,-0.8820648000000001,2.282364,1
2510,8.988327,-0.8581238000000001,2.2775726,1
2511,8.933258,-0.78271484,2.2572174,1
2512,9.013458,-0.7336273,2.18779,1
2513,8.977554,-0.6989135999999999,2.2153167999999996,1
2514,8.96199,-0.7156677,2.2344666,1
2515,9.049377,-0.6989135999999999,2.1770172000000003,1
2516,9.102051,-0.70610046,2.1063842999999998,1
2517,9.068527,-0.7108916999999999,2.0429381999999996,1
2518,8.953613,-0.6689911000000001,2.0980072,1
2519,8.988327,-0.6354675,2.149475,1
2520,9.054169,-0.6414489999999999,2.1518707000000004,1
2521,9.055359,-0.6761626999999999,2.1183472,1
2522,9.039795,-0.6929320999999999,2.1027985,1
2523,9.039795,-0.6869506999999999,2.0884247,1
2524,9.009872,-0.6653899999999999,2.0585022,1
2525,9.020645,-0.6474456999999999,2.0213928,1
2526,9.012267999999999,-0.6330719,2.0321655,1
2527,9.031417999999999,-0.65701294,1.9495697,1
2528,9.068527,-0.68455505,1.9340057000000002,1
2529,9.046982,-0.7623595999999999,1.9340057000000002,1
2530,9.081696,-0.7096863,1.9399872,1
2531,9.050568,-0.6618042,1.9699096999999999,1
2532,9.072113,-0.7048949999999999,1.8885040000000002,1
2533,9.046982,-0.71687317,1.8705596999999998,1
2534,9.039795,-0.7408142,1.8717499,1
2535,9.099655,-0.71328735,1.8561859,1
2536,9.090073,-0.6797638,1.8106995,1
2537,9.129578,-0.621109,1.8071136000000003,1
2538,9.154724,-0.5456848000000001,1.8106995,1
2539,9.127182000000001,-0.5540619000000001,1.7771758999999998,1
2540,9.086487,-0.5756073,1.7197266,1
2541,9.091277999999999,-0.581604,1.7077484,1
2542,9.088882,-0.56962585,1.8154907,1
2543,9.134369,-0.5277251999999999,1.7292938000000002,1
2544,9.128387,-0.59716797,1.5916290000000002,1
2545,9.129578,-0.581604,1.6335297,1
2546,9.130783000000001,-0.59954834,1.6969756999999999,1
2547,9.149933,-0.63067627,1.622757,1
2548,9.094864,-0.69651794,1.5401611000000002,1
2549,9.087677000000001,-0.7491913,1.6119843,1
2550,9.164291,-0.6761626999999999,1.6670532,1
2551,9.2313385,-0.6725769,1.646698,1
2552,9.136764999999999,-0.7156677,1.5006561,1
2553,9.088882,-0.6941223000000001,1.5916290000000002,1
2554,9.12001,-0.6701813,1.6443023999999997,1
2555,9.14035,-0.6821594,1.6215515,1
2556,9.087677000000001,-0.6941223000000001,1.6431122,1
2557,9.109222,-0.72406006,1.6251526,1
2558,9.143951,-0.73243713,1.5617065,1
2559,9.109222,-0.6977234,1.6000061,1
2560,9.091277999999999,-0.69651794,1.6239471,1
2561,9.117614999999999,-0.6989135999999999,1.543747,1
2562,9.141556,-0.65940857,1.5066376,1
2563,9.129578,-0.6115265000000001,1.5976105,1
2564,9.111618,-0.6007538,1.567688,1
2565,9.115219,-0.5959625,1.5557098,1
2566,9.127182000000001,-0.6689911000000001,1.5257874,1
2567,9.17746,-0.6833496,1.4228363000000002,1
2568,9.167892,-0.66300964,1.4144591999999998,1
2569,9.161896,-0.63067627,1.4539642,1
2570,9.085281,-0.6151123000000001,1.4850922,1
2571,9.072113,-0.59477234,1.5090332,1
2572,9.187042,-0.58399963,1.5940246999999999,1
2573,9.258865,-0.63067627,1.567688,1
2574,9.226547,-0.7156677,1.330658,1
2575,9.086487,-0.7875061,1.3330536,1
2576,9.0733185,-0.7563781999999999,1.4671326,1
2577,9.169083,-0.79348755,1.5557098,1
2578,9.21936,-0.8748931999999999,1.5473328000000002,1
2579,9.141556,-0.98023987,1.5305786,1
2580,9.115219,-1.0197449,1.6215515,1
2581,9.161896,-0.97184753,1.670639,1
2582,9.197815,-0.8868560999999999,1.5641022,1
2583,9.046982,-0.7515869000000001,1.5305786,1
2584,8.948822,-0.6977234,1.6682433999999997,1
2585,9.087677000000001,-0.69651794,1.7113342,1
2586,9.166687,-0.7276459,1.5904388,1
2587,9.203796,-0.73243713,1.5209961,1
2588,9.1128235,-0.7551727,1.5389556999999998,1
2589,9.0972595,-0.82580566,1.6059875,1
2590,9.09845,-0.9060210999999999,1.6239471,1
2591,9.147537,-0.9957886,1.5198059,1
2592,9.172684,-0.9790344000000001,1.5293732,1
2593,9.148727000000001,-0.89045715,1.567688,1
2594,9.0972595,-0.79707336,1.4958649,1
2595,9.117614999999999,-0.77433777,1.4599457,1
2596,9.193024000000001,-0.8282013,1.3917084,1
2597,9.178664999999999,-0.77552795,1.3929138,1
2598,9.172684,-0.68814087,1.5150146,1
2599,9.131973,-0.6725769,1.5652924,1
2600,9.100845,-0.68933105,1.5916290000000002,1
2601,9.090073,-0.6929320999999999,1.5940246999999999,1
2602,9.075714,-0.6618042,1.686203,1
2603,9.108032000000001,-0.64505005,1.6538848999999998,1
2604,9.096069,-0.72525024,1.6395111,1
2605,9.099655,-0.73602295,1.6155701,1
2606,9.125992,-0.80426025,1.6347198,1
2607,9.142746,-0.8018645999999999,1.6550751,1
2608,9.114014,-0.83418274,1.6574706999999997,1
2609,9.086487,-0.8581238000000001,1.6107788,1
2610,9.086487,-0.77433777,1.53656,1
2611,9.128387,-0.680954,1.4635468,1
2612,9.129578,-0.4774475,1.5461426,1
2613,9.07811,-0.39245605,1.6239471,1
2614,9.0733185,-0.37091064,1.6431122,1
2615,9.055359,-0.46788025,1.6047973999999998,1
2616,9.069733,-0.5157623,1.6431122,1
2617,9.134369,-0.5780029000000001,1.6215515,1
2618,9.116408999999999,-0.67378235,1.5748749,1
2619,9.123596000000001,-0.7024994000000001,1.5772705,1
2620,9.167892,-0.7408142,1.4946594,1
2621,9.194229,-0.7503966999999999,1.4156494,1
2622,9.14035,-0.70610046,1.3677673000000001,1
2623,9.069733,-0.6713866999999999,1.3629761,1
2624,9.092467999999998,-0.7001189999999999,1.433609,1
2625,9.148727000000001,-0.7276459,1.4384003,1
2626,9.149933,-0.77194214,1.4587555,1
2627,9.146347,-0.76834106,1.4719238000000001,1
2628,9.141556,-0.7779235999999999,1.5054321000000002,1
2629,9.130783000000001,-0.78990173,1.4395905,1
2630,9.0972595,-0.8473511,1.4671326,1
2631,9.088882,-0.79467773,1.4779053,1
2632,9.082901,-0.7671509,1.528183,1
2633,9.128387,-0.8090515,1.4850922,1
2634,9.152328500000001,-0.79467773,1.4144591999999998,1
2635,9.1128235,-0.89164734,1.3749542,1
2636,9.105637,-0.9335479999999999,1.4300232,1
2637,9.154724,-0.9503021,1.4443816999999999,1
2638,9.201400999999999,-0.94551086,1.4348145,1
2639,9.17627,-0.9550934000000001,1.3605957,1
2640,9.151123,-0.9981841999999999,1.3031311,1
2641,9.142746,-1.0113524999999999,1.3174896,1
2642,9.181061,-1.0185394,1.3713684,1
2643,9.169083,-1.0436859,1.3031311,1
2644,9.130783000000001,-1.0688171,1.2588348,1
2645,9.134369,-1.0700226000000002,1.2959441999999999,1
2646,9.173874,-0.9874115,1.2935486,1
2647,9.222961,-1.0065765,1.3186951,1
2648,9.207397,-1.0616302,1.3162994,1
2649,9.118805,-1.1166992,1.2624207,1
2650,9.172684,-1.1262816999999998,1.2408752,1
2651,9.125992,-1.1502228,1.3007355,1
2652,9.193024000000001,-1.1011353000000002,1.2241211,1
2653,9.133179,-1.1250763000000001,1.2301024999999999,1
2654,9.143951,-1.1873322,1.246872,1
2655,9.188232000000001,-1.2364197000000001,1.2372893999999999,1
2656,9.163101,-1.2136688,1.2145386,1
2657,9.17627,-1.1801453000000002,1.1953888000000001,1
2658,9.114014,-1.1849365,1.1247559,1
2659,9.09845,-1.1262816999999998,1.2253113000000002,1
2660,9.171478,-1.0760040000000002,1.2480621,1
2661,9.206192,-1.1250763000000001,1.1905975,1
2662,9.123596000000001,-1.1430358999999999,1.2516479999999999,1
2663,9.131973,-1.1669768999999999,1.2564392,1
2664,9.214569000000001,-1.210083,1.2935486,1
2665,9.252884,-1.3297881999999999,1.2157440000000002,1
2666,9.274429,-1.3142242,1.1163788000000001,1
2667,9.181061,-1.2866973999999998,1.1068115,1
2668,9.193024000000001,-1.2124786,1.1594696000000002,1
2669,9.189438,-1.2064819,1.1882019,1
2670,9.171478,-1.1801453000000002,1.1822205,1
2671,9.164291,-1.1418457,1.2887573,1
2672,9.175064,-1.0987396,1.3462219,1
2673,9.199005,-1.0029755,1.3210906999999998,1
2674,9.169083,-1.020935,1.1918030000000002,1
2675,9.157119999999999,-0.9359436,1.2636261,1
2676,9.216965,-0.8605193999999999,1.3534088,1
2677,9.157119999999999,-0.78630066,1.3258667,1
2678,9.094864,-0.799469,1.2432709,1
2679,9.130783000000001,-0.86531067,1.1379242,1
2680,9.23732,-0.89045715,1.1139832,1
2681,9.276825,-0.98501587,1.2732086,1
2682,9.213379,-1.0640258999999999,1.3749542,1
2683,9.155914,-1.0831909,1.4036865,1
2684,9.099655,-1.0580444,1.330658,1
2685,9.081696,-1.0341034,1.4407959,1
2686,9.187042,-0.9395294,1.4108733999999998,1
2687,9.210983,-0.98143005,1.3174896,1
2688,9.170288000000001,-0.96347046,1.3318633999999998,1
2689,9.164291,-0.8820648000000001,1.349823,1
2690,9.049377,-0.74679565,1.45755,1
2691,9.096069,-0.70370483,1.5760651,1
2692,9.155914,-0.74679565,1.4826965,1
2693,9.214569000000001,-0.8377838,1.4240416999999999,1
2694,9.044586,-0.8820648000000001,1.4443816999999999,1
2695,9.074508999999999,-0.8461609,1.6969756999999999,1
2696,9.267242,-0.76834106,1.7041626,1
2697,9.337875,-0.62709045,1.646698,1
2698,9.151123,-0.58639526,1.6215515,1
2699,9.013458,-0.61631775,1.7400665000000002,1
2700,9.033813,-0.66300964,1.8418273999999997,1
2701,9.137955,-0.68574524,1.9100647000000002,1
2702,9.045776,-0.72883606,2.002243,1
2703,8.872208,-0.80067444,2.1662445,1
2704,8.890167,-0.70729065,2.3876953,1
2705,8.994308,-0.64505005,2.2260895,1
2706,9.042191,-0.5133667000000001,2.0716705,1
2707,8.905716,-0.41639709999999996,2.2057495,1
2708,8.952408,-0.50738525,2.4679108,1
2709,8.893753,-0.6725769,2.4906464,1
2710,8.971558,-0.82221985,2.4343872,1
2711,8.862625,-0.81503296,2.4714966,1
2712,9.153519000000001,-0.7982788000000001,2.8845062,1
2713,9.299576,-0.92277527,2.3278502999999997,1
2714,8.373016,-0.7048949999999999,3.3549652,1
2715,8.273651,-0.23443604,2.9682922,1
2716,8.557373,-0.5061798,2.3613586,1
2717,8.975159,-0.59835815,2.7827453999999996,1
2718,10.390121,-0.5097656,2.8904877,1
2719,6.6372222999999995,-0.8712921,1.3246765,1
2720,9.499481,-1.2052916999999999,4.6131134000000005,1
2721,9.681442,-0.59477234,3.1275177000000003,1
2722,7.776855499999999,-0.29548645,3.5213623,1
2723,8.307175,-1.6242676,2.8773193,1
2724,8.982330000000001,-0.95269775,3.49263,1
2725,8.908112,-1.1993103,3.516571,1
2726,8.915298,-0.7408142,3.0915985,1
2727,8.483139,-0.5444945999999999,3.1047667999999997,1
2728,8.572922,-0.680954,3.168213,1
2729,8.440047999999999,-0.85453796,3.6255035,1
2730,8.339493,-0.8701019,3.3010864,1
2731,8.229355,-1.1657867,3.5632477,1
2732,8.101272999999999,-1.012558,4.200119,1
2733,8.296402,-0.67378235,4.129486,1
2734,8.663910000000001,-0.96707153,4.196518,1
2735,8.666306,-1.1502228,3.7847137,1
2736,8.971558,-1.1705780000000001,4.9650574,1
2737,8.707001,-1.0747986,4.601135299999999,1
2738,8.256897,-1.0317078000000002,4.414398,1
2739,7.958816499999999,-1.0568541999999999,4.166595500000001,1
2740,7.785232499999999,-1.052063,4.553253,1
2741,7.714614999999999,-1.0580444,4.947098,1
2742,8.050995,-0.9898070999999999,4.7411957000000005,1
2743,7.9875490000000005,-0.9562988000000001,4.611908000000001,1
2744,7.920501700000001,-0.8485565,4.857315,1
