,AccX[m/s^2],AccY[m/s^2],AccZ[m/s^2],label
0,8.356247,-2.8333435000000002,1.6969756999999999,1
1,8.84108,-2.3066254,0.14553833,1
2,8.687851,-2.0181273999999996,-0.25549316,1
3,8.420898,-2.6621552000000004,1.9100647000000002,1
4,8.546585,-1.8193970000000002,0.5657196,1
5,7.842697,-2.0276947,1.1534882,1
6,6.6324309999999995,-1.5680083999999999,-0.31774902,1
7,7.0502167,-2.3161926,-1.0288239,1
8,8.752487,-2.590332,-0.43745422,1
9,11.544128,-1.6697693,-0.15733337,1
10,12.939957000000001,-1.0137482,-0.30577087,1
11,10.949173,-1.4925995,-1.4765472,1
12,10.276398,-1.3848572000000001,-1.2251433999999999,1
13,9.878967,-2.0947418,-1.1030426000000002,1
14,8.906921,-2.3006287,-1.3125305,1
15,8.763275,-2.3988037,-1.1162108999999998,1
16,8.406525,-2.6633606,-1.3987273999999998,1
17,8.906921,-2.6394196,-1.085083,1
18,8.994308,-2.70047,-0.7451171999999999,1
19,9.286407,-2.696869,-1.0886841,1
20,9.282805999999999,-2.4837952000000003,-0.7020111,1
21,8.526245,-1.9822083,-1.9529877,1
22,8.936844,-1.9666443,-1.7303313999999999,1
23,8.953613,-2.071991,-1.1533203,1
24,9.002686,-2.1940918,-1.1365662,1
25,8.5082855,-1.8146057,-1.0168457,1
26,8.888962,-1.8277740000000002,-1.8308868000000003,1
27,7.684677000000001,-1.6996918,-1.2203674,1
28,11.119156,-2.2252197,-1.4430237,1
29,10.118393,-2.3796387,-1.4573822,1
30,9.880157,-2.519699,-1.1425476,1
31,8.84108,-2.1126862,-0.96058655,1
32,8.197037,-2.0073395,-1.1497344999999999,1
33,8.563354499999999,-2.5316772000000003,-1.5663147,1
34,9.327103,-2.566391,-1.6058197,1
35,9.390549,-2.6992645,-0.8061676,1
36,9.203796,-1.9941711,-0.709198,1
37,8.802764999999999,-1.7487793000000003,-1.9697418000000002,1
38,8.398147999999999,-2.368866,-1.526825,1
39,8.728546000000001,-2.566391,-0.867218,1
40,10.20697,-2.3377533,-1.3915405,1
41,9.346252,-2.0516357,-1.9625702,1
42,9.872986000000001,-2.2443695,-1.5136566,1
43,9.695816,-2.997345,-1.5818787,1
44,8.793198,-2.3521118,-1.5663147,1
45,8.548981,-0.71328735,-1.1485290000000001,1
46,9.160706,-1.3309784,-0.5619506999999999,1
47,9.886154,-1.6805419999999998,-1.0336151,1
48,8.039017,-1.3501433999999999,-2.1277618,1
49,8.158737,-1.4866028,-2.128952,1
50,7.952835,-0.033325195,-1.1856383999999998,1
51,9.116408999999999,-0.6977234,-2.2642365,1
52,9.525818,0.04808044400000001,-1.006073,1
53,7.5948944,-0.39964294,-2.6245575,1
54,8.23056,1.4678345,-1.8260956000000002,1
55,9.080505,0.48143005,-1.9122772000000001,1
56,8.886566,0.6717681999999999,-1.3807677999999999,1
57,8.539413,0.14503479,-1.4083099,1
58,8.649536,-0.24880981,-1.2466888,1
59,9.469559,-1.0999451,-0.5787201,1
60,8.345474000000001,-2.0408630000000003,-0.029251099,1
61,8.790802000000001,-2.5556183,-1.2610626,1
62,8.708206,-3.265503,-1.5280151000000002,1
63,12.039734,-3.9801636,-0.7295531999999999,1
64,10.347031,-1.6278687,-4.4501343,1
65,7.462021000000001,-0.55526733,-0.69244385,1
66,8.955994,-0.31942750000000003,-2.4629517000000005,1
67,10.349426,-0.48942566,-1.9039001,1
68,8.576523,-0.9574889999999999,-2.7514496,1
69,7.8845979999999996,-0.6833496,-2.2893677,1
70,8.46759,-0.7264556999999999,-2.6903992000000003,1
71,8.64476,-0.3697052,-3.0088348,1
72,8.625595,-0.720459,-3.3739470999999996,1
73,8.711791999999999,-1.4614716,-3.3344421000000004,1
74,8.977554,-1.9474945,-3.3871154999999997,1
75,8.794388,-1.8888397000000001,-3.6073760000000004,1
76,8.332305999999999,-0.97784424,-3.9126434000000003,1
77,7.110077,0.41558838,-3.9425660000000002,1
78,7.0933075,0.6825409,-3.7210998999999996,1
79,7.107681299999999,0.22525024,-3.6241455,1
80,7.463211,-0.7300415,-3.5774536,1
81,7.745727499999999,-1.2579651,-3.2650146,1
82,8.084518,-1.0317078000000002,-4.093399,1
83,8.479553,-0.7982788000000001,-4.5686493,1
84,8.98114,-1.0197449,-4.5303497,1
85,9.88974,-1.4638672,-4.5135803,1
86,10.411682,-1.4327393,-4.4585114,1
87,9.962769,-0.19613647,-4.7099150000000005,1
88,8.537018,0.51493835,-4.537521400000001,1
89,6.839523299999999,1.046463,-4.268173,1
90,5.513138,1.1841278,-3.740265,1
91,4.766144000000001,1.0117493,-3.2913513,1
92,4.569824,0.5568390000000001,-2.9968567000000004,1
93,4.450119,-0.18296814,-3.4505614999999996,1
94,4.5662384000000005,-0.3074646,-4.5686493,1
95,3.8958587999999996,-0.3936615,-4.635681,1
96,2.845993,0.5460663,-6.2613525,1
97,4.1316833,1.0739899,-5.4628906,1
98,8.750107,0.8190155,-6.243393,1
99,8.833893,0.25756836,-6.132065,1
100,7.691864,-0.4487152,-5.771744,1
101,5.0091553,-0.75756836,-6.099746700000001,1
102,3.9401550000000003,-1.0317078000000002,-4.1759949999999995,1
103,4.2418213,-2.0588226,-3.214737,1
104,5.211471599999999,-3.028473,-4.696747,1
105,6.2541504,-2.3892212,-6.2613525,1
106,6.858673,-0.6833496,-7.7505493,1
107,6.139221,1.1134948999999998,-9.09848,1
108,6.347519,2.3297423999999998,-9.586899,1
109,6.825164999999999,3.0264587000000005,-8.786041,1
110,6.185912999999999,2.3979797,-8.7165985,1
111,6.692276,-0.67378235,-8.805191,1
112,6.023102,-2.1306458,-8.817169,1
113,4.9696503,-1.7344055,-8.353882,1
114,5.394623,-0.625885,-8.370636,1
115,6.038666,0.0025787354,-8.84111,1
116,6.7401732999999995,0.22164917,-9.458801,1
117,6.889800999999999,0.39164734,-9.780823,1
118,6.218230999999999,0.39283752,-9.925674,1
119,6.205063,-0.015365601000000001,-9.386978,1
120,7.579330400000001,-0.006988525400000001,-8.678299,1
121,7.973175,0.09596252400000001,-8.7621,1
122,8.570541,0.31263733,-8.470001,1
123,13.108749,-0.58877563,-8.616043,1
124,15.589142,-0.41879272,-9.6527405,1
125,11.128738,-1.3297881999999999,-11.418457,1
126,9.279221000000001,-1.5715941999999998,-9.801178,1
127,10.478714,-1.2447968,-6.117706299999999,1
128,8.594482000000001,0.007369995,-3.9377747000000003,1
129,6.510330000000001,0.18095398,-1.753067,1
130,5.5059510000000005,0.31263733,-0.1309967,1
131,5.589752,0.08518982,1.2983398000000002,1
132,5.9393005,-0.58877563,1.4001006999999999,1
133,7.041839599999999,-0.7779235999999999,-0.008895874,1
134,8.926071,-0.6905365,-2.2103577000000003,1
135,9.966353999999999,-0.48703003,-3.3176879999999995,1
136,10.427230999999999,-1.1035309,-3.2279053,1
137,10.725311,-1.4387207,-2.3216857999999996,1
138,10.768417,-0.88327026,-1.4358368000000001,1
139,10.177048,-0.13388062,-0.7977905,1
140,9.391739,0.34376526,-0.34288025,1
141,8.552582000000001,0.46466064,0.1539154,1
142,7.877411,0.37727356,0.45318604,1
143,7.672714,-0.31225586,0.6136017,1
144,8.399353,-0.6977234,0.058151245,1
145,8.924881,-0.5732269,-0.91030884,1
146,9.25528,-0.083602905,-1.0491791000000001,1
147,9.419281,0.08279419,-0.52963257,1
148,9.487518,-0.04649353,-0.23753357,1
149,9.657501,-0.12908936,-0.2111969,1
150,9.369003,0.100753784,-0.372818,1
151,9.030228,0.49459840000000005,-0.06036377,1
152,8.918884,0.5843811,0.14193726,1
153,8.844666,0.44311523,0.1539154,1
154,8.935654,-0.00579834,0.041381836,1
155,9.312744,-0.21409607,-0.10824585,1
156,9.550964,-0.09677124,-0.25909424,1
157,9.640747,0.31263733,-0.20521545,1
158,9.359421000000001,0.35572815,-0.25909424,1
159,9.284011999999999,-0.15663147,-0.40393066,1
160,9.220566,-0.5384979,-0.6804657,1
161,9.137955,-0.6689911000000001,-1.2383118,1
162,9.099655,-0.6833496,-1.5531616000000001,1
163,9.579697,-0.5756073,-1.6752625,1
164,9.871780000000001,-0.44273376,-1.6620941000000002,1
165,9.653915,-1.0005798000000001,-1.7398987000000001,1
166,9.571304,-1.6087189,-1.7363129000000002,1
167,9.509064,-1.4722443,-1.7051849,1
168,9.09845,-0.74560547,-1.7662354,1
169,8.929672,-0.67736816,-1.5100555,1
170,9.3498535,-0.5097656,-1.6189879999999999,1
171,9.272034,-0.90122986,-2.0834656000000003,1
172,9.003891000000001,-0.7707366999999999,-2.5371704,1
173,9.284011999999999,-0.95988464,-2.3695831000000003,1
174,8.861435,-0.4846344,-2.9920654,1
175,9.196625,0.024139404,-2.614975,1
176,9.406113000000001,-0.052474976,-2.547943,1
177,9.258865,0.22285461,-2.5168152000000004,1
178,8.951217999999999,0.4981842000000001,-2.0870667000000003,1
179,9.347458,0.5951538000000001,-1.401123,1
180,9.165497,0.9064026,-1.4370421999999998,1
181,8.690247,0.97224426,-1.5890656,1
182,8.92009,0.73880005,-1.4262542999999999,1
183,9.153519000000001,0.22285461,-1.784195,1
184,9.121201,0.09596252400000001,-1.6656799,1
185,8.807556,-0.26437378,-1.6884308000000001,1
186,9.020645,-0.35176086,-1.4035187,1
187,9.184647,-0.4056244,-1.3592224,1
188,9.055359,-0.03213501,-1.4334412,1
189,8.867416,0.4359436,-1.2945862,1
190,8.995499,0.58317566,-1.2311401000000002,1
191,9.254074000000001,0.49339294,-1.1078339,1
192,9.480331,0.31982422,-1.3292999,1
193,9.021835000000001,0.14025879,-1.8141174,1
194,8.971558,-0.015365601000000001,-2.2247314,1
195,8.959595,-0.4451294,-2.4162597999999997,1
196,9.647919,-0.69651794,-2.3085175,1
197,9.473145,-0.73602295,-2.673645,1
198,9.473145,-0.80426025,-2.2534637,1
199,8.569336,-0.38647459999999995,-2.0307922,1
200,9.383362,-0.34457397,-1.6285706,1
201,9.001495,-0.27754209999999996,-1.5387878000000001,1
202,9.0182495,-0.41999817,-1.3209229,1
203,8.954803,-0.35774229999999996,-1.1545258,1
204,8.918884,-0.25239563,-1.1449432,1
205,8.541808999999999,-0.25479126,-1.4897003,1
206,9.127182000000001,-0.41999817,-1.0395966,1
207,9.705383,-0.5648346,-0.9941101000000001,1
208,10.193802,-0.41520690000000005,-0.8241272,1
209,9.304352,-0.21768188,-0.61343384,1
210,7.890579,-0.24162292,-1.5663147,1
211,8.304779,-0.45829773,-1.8727875,1
212,10.818695,-0.8892517,-1.6034393,1
213,11.532166,-0.79348755,-1.1760712,1
214,9.768829,-0.35176086,-0.8863678,1
215,7.767272999999999,-0.621109,-0.8600310999999999,1
216,7.43927,-0.86531067,-0.7271576,1
217,8.396957,-1.0400848,0.3598175,1
218,9.151123,-0.6905365,0.19342041,1
219,9.477936,-0.31942750000000003,-0.69721985,1
220,10.204575,-0.5049895999999999,-1.3089447,1
221,10.766022,-0.29788208,-1.2275391000000002,1
222,10.788757,0.14144897,-0.5727234,1
223,9.582092,-0.093185425,-0.7103881999999999,1
224,8.144363,-0.28112793,-0.6625061,1
225,7.519485499999999,-0.25598145,-0.25430298,1
226,9.201400999999999,-0.1925354,0.31072998,1
227,10.256058,-0.2966919,0.6650696,1
228,9.714966,-0.7408142,0.55255127,1
229,9.188232000000001,-1.0592499,0.39932249999999997,1
230,8.489136,-0.97424316,-0.12261963,1
231,8.9991,-0.71806335,-0.46379090000000006,1
232,9.424072,-0.5061798,-0.40872192,1
233,9.65152,-0.42358398,-0.14176941,1
234,9.485123,-0.3589325,0.029418945,1
235,9.199005,-0.5133667000000001,-0.06036377,1
236,9.209793,-0.8688965,-0.063964844,1
237,9.250488,-1.2639465,-0.09986877400000001,1
238,9.471954,-1.4674530000000001,-0.071136475,1
239,9.742493,-1.2615508999999998,0.24728394,1
240,9.839462,-0.680954,0.5154419,1
241,9.67186,-0.43077087,0.41726685,1
242,9.437241,-0.59954834,0.28320313,1
243,9.25528,-0.74679565,0.40290833,1
244,9.085281,-0.76116943,0.48431396,1
245,8.90094,-0.66659546,0.62197876,1
246,8.766861,-0.63067627,0.60401917,1
247,8.947617,-0.58039856,0.63394165,1
248,8.970367,-0.42477417,0.6279602,1
249,8.989517,-0.32063293,0.5405731,1
250,9.039795,-0.23085022,0.43762207,1
251,9.25528,-0.20690918,0.42326355,1
252,9.680252000000001,-0.33021545,0.5860595999999999,1
253,9.631165,-0.6330719,0.3885498,1
254,9.355835,-1.0508575,0.27720642,1
255,9.261261,-1.249588,0.6746521,1
256,9.428848,-1.1298676,1.1726378999999998,1
257,9.293579,-0.92996216,1.2684174,1
258,9.2313385,-0.739624,1.270813,1
259,9.154724,-0.52893066,1.1846161,1
260,8.984726,-0.29071045,1.3617858999999999,1
261,9.164291,-0.21409607,1.4108733999999998,1
262,8.940445,-0.26556396,1.4407959,1
263,8.934448,-0.31704712,1.2588348,1
264,8.892548,-0.34576416,1.2013702,1
265,9.013458,-0.47984314,1.3964996,1
266,9.087677000000001,-0.6031494000000001,1.4982605,1
267,9.121201,-0.7228545999999999,1.5700836,1
268,9.3103485,-0.6330719,1.3450316999999998,1
269,8.982330000000001,-0.43554688,1.1618652,1
270,8.923675999999999,-0.38407898,1.1008148000000002,1
271,9.043396000000001,-0.41400146,0.94400024,1
272,9.233734,-0.30506897,0.7692260999999999,1
273,9.143951,-0.13867188,0.79914856,1
274,9.321121,-0.083602905,0.82788086,1
275,9.570114,0.04447937,0.666275,1
276,9.248092999999999,-0.045303345,0.5381775,1
277,9.352234,-0.07043457,0.47354126,1
278,9.401321000000001,-0.15542603,0.3825531,1
279,9.352234,-0.25360107,0.27243042,1
280,9.299576,-0.37809753,0.21376038,1
281,9.287598,-0.38887024,0.2987671,1
282,9.261261,-0.4846344,0.117996216,1
283,9.267242,-0.44154358,0.15270996,1
284,9.323516999999999,-0.37449646,0.171875,1
285,9.227737,-0.22605896,0.067718506,1
286,9.160706,-0.17459106,-0.032836914,1
287,9.268448,-0.13627625,-0.026855469,1
288,9.254074000000001,-0.088394165,-0.13937378,1
289,9.254074000000001,-0.09916687,-0.18725586,1
290,9.203796,-0.04888916,-0.23394775,1
291,9.306747,-0.06086731,-0.23992919999999998,1
292,9.346252,-0.117126465,-0.32133484,1
293,9.299576,-0.13388062,-0.4278717000000001,1
294,9.167892,0.013366699,-0.5787201,1
295,9.216965,0.14743042,-0.66371155,1
296,9.178664999999999,0.19651794,-0.7008209,1
297,9.228943,0.24200439999999998,-0.7115935999999999,1
298,9.300766000000001,0.28630066,-0.7498931999999999,1
299,9.289992999999999,0.27671814,-0.72236633,1
300,9.3498535,0.32699585,-0.74391174,1
301,9.398926,0.21447754,-0.6553345,1
302,9.3498535,0.08039856,-0.60505676,1
303,9.336685000000001,-0.033325195,-0.56555176,1
304,9.292389,-0.03213501,-0.60505676,1
305,9.275619500000001,-0.040512085,-0.48054504,1
306,9.300766000000001,-0.059661865,-0.38238525,1
307,9.292389,-0.19374084,-0.23155212,1
308,9.286407,-0.34457397,-0.09509277,1
309,9.293579,-0.3984375,-0.08192444,1
310,9.3151245,-0.32781982,-0.073532104,1
311,9.263657,-0.18655396,-0.09388733,1
312,9.25528,-0.12669373,-0.07592773400000001,1
313,9.275619500000001,-0.10874939,-0.07473755,1
314,9.329498,-0.097976685,-0.025650024,1
315,9.244507,-0.052474976,-0.030441284,1
316,9.260071,-0.03453064,0.024627686,1
317,9.312744,0.024139404,-0.035232544,1
318,9.264847,0.01574707,-0.10107422,1
319,9.21936,-0.0105896,-0.05079651,1
320,9.190628,-0.08480835,0.009063721,1
321,9.233734,-0.10635376,-0.011291503999999999,1
322,9.243300999999999,-0.11592102,0.084472656,1
323,9.251678,-0.13029480000000002,0.13476563,1
324,9.2313385,-0.16261292,0.16587829999999998,1
325,9.274429,-0.16142273,0.1874237,1
326,9.272034,-0.15303039999999998,0.20419312,1
327,9.273239,-0.13986206,0.21138,1
328,9.251678,-0.09437561,0.23651123,1
329,9.303162,-0.109939575,0.24249268,1
330,9.227737,-0.121917725,0.255661,1
331,9.225342,-0.12550354,0.20898438,1
332,9.221756,-0.09677124,0.22692871,1
333,9.239716,-0.13986206,0.18623352,1
334,9.280411,-0.14944458,0.21736145,1
335,9.262466,-0.11831665,0.18623352,1
336,9.272034,-0.16859436,0.17306519,1
337,9.284011999999999,-0.17459106,0.16348267,1
338,9.282805999999999,-0.24281311,0.15270996,1
339,9.289992999999999,-0.26795959999999996,0.12757874,1
340,9.269638,-0.31105042,0.14433289,1
341,9.278015,-0.29788208,0.18383789,1
342,9.274429,-0.2859192,0.16468811,1
343,9.282805999999999,-0.29548645,0.10482788,1
344,9.341461,-0.30506897,0.091659546,1
345,9.303162,-0.27754209999999996,0.117996216,1
346,9.243300999999999,-0.28112793,0.12637329,1
347,9.288788,-0.24760437,0.117996216,1
348,9.319916000000001,-0.24043274,-0.016082764,1
349,9.243300999999999,-0.18415833,-0.04600525,1
350,9.220566,-0.16261292,-0.011291503999999999,1
351,9.263657,-0.14465332,0.03060913,1
352,9.267242,-0.10395813,0.09046936,1
353,9.285202,-0.081207275,0.006668091,1
354,9.246902,-0.0728302,0.04019165,1
355,9.272034,-0.09437561,0.06892395,1
356,9.293579,-0.097976685,0.07609558,1
357,9.254074000000001,-0.12071228,0.108428955,1
358,9.275619500000001,-0.12789917,0.09764099,1
359,9.323516999999999,-0.13986206,0.17066956,1
360,9.333084,-0.14825439999999998,0.137146,1
361,9.287598,-0.16859436,0.11920166,1
362,9.245697,-0.1590271,0.216156,1
363,9.281616,-0.14825439999999998,0.24369812,1
364,9.239716,-0.17338562,0.26045227,1
365,9.257675,-0.19134521,0.23292542,1
366,9.264847,-0.20211792,0.19581604,1
367,9.233734,-0.17936707,0.16708374,1
368,9.251678,-0.15782166,0.16108704,1
369,9.266052,-0.11592102,0.18623352,1
370,9.267242,-0.14106749999999998,0.23171997,1
371,9.260071,-0.16021729,0.21017456,1
372,9.268448,-0.14825439999999998,0.19940186,1
373,9.29718,-0.14106749999999998,0.24130249,1
374,9.23851,-0.15663147,0.25326538,1
375,9.285202,-0.10635376,0.23171997,1
376,9.262466,-0.09437561,0.2915802,1
377,9.263657,-0.13986206,0.30474854,1
378,9.281616,-0.13269043,0.33467102,1
379,9.25528,-0.16740417,0.34425354,1
380,9.209793,-0.15663147,0.36100770000000004,1
381,9.276825,-0.14106749999999998,0.35502625,1
382,9.3103485,-0.14585876,0.21496582,1
383,9.251678,-0.14944458,0.22453308,1
384,9.257675,-0.15065002,0.27122498,1
385,9.252884,-0.15303039999999998,0.28678894,1
386,9.281616,-0.16381836,0.2987671,1
387,9.25528,-0.13148499,0.32270813,1
388,9.246902,-0.090789795,0.3310852,1
389,9.249298,-0.117126465,0.30354309999999995,1
390,9.279221000000001,-0.15542603,0.31671143,1
391,9.274429,-0.15542603,0.30593872,1
392,9.251678,-0.17698670000000002,0.32868958,1
393,9.275619500000001,-0.14704895,0.3310852,1
394,9.301956,-0.1590271,0.28199768,1
395,9.29718,-0.13508606,0.27960205,1
396,9.284011999999999,-0.13867188,0.2640381,1
397,9.269638,-0.13748169,0.24130249,1
398,9.289992999999999,-0.15303039999999998,0.23651123,1
399,9.269638,-0.12071228,0.2628479,1
400,9.276825,-0.12789917,0.2915802,1
401,9.243300999999999,-0.13627625,0.21017456,1
402,9.260071,-0.14346313,0.19581604,1
403,9.272034,-0.1590271,0.17425537,1
404,9.266052,-0.14106749999999998,0.2233429,1
405,9.272034,-0.16740417,0.23890686,1
406,9.312744,-0.17219543,0.21496582,1
407,9.309142999999999,-0.15663147,0.19821167,1
408,9.252884,-0.16979979999999997,0.15989685,1
409,9.248092999999999,-0.13148499,0.23651123,1
410,9.279221000000001,-0.14106749999999998,0.26524353,1
411,9.273239,-0.13627625,0.26643372,1
412,9.236130000000001,-0.12550354,0.29516602,1
413,9.234924000000001,-0.12550354,0.30235290000000004,1
414,9.286407,-0.13388062,0.32270813,1
415,9.263657,-0.16142273,0.26763916,1
416,9.205002,-0.14944458,0.26045227,1
417,9.305557,-0.13986206,0.25805664,1
418,9.282805999999999,-0.15423584,0.19581604,1
419,9.251678,-0.17698670000000002,0.1946106,1
420,9.267242,-0.19732666,0.25805664,1
421,9.25528,-0.20451355,0.2640381,1
422,9.280411,-0.20211792,0.2233429,1
423,9.274429,-0.17578125,0.20179749,1
424,9.2708435,-0.19853210000000002,0.21257019,1
425,9.299576,-0.19134521,0.22692871,1
426,9.276825,-0.19732666,0.21855164,1
427,9.327103,-0.15065002,0.20179749,1
428,9.386963,-0.15663147,0.16229248,1
429,9.361816000000001,-0.14346313,0.1826477,1
430,9.220566,-0.10874939,0.23532104,1
431,9.15831,-0.105148315,0.34065247,1
432,9.263657,-0.16142273,0.29397583,1
433,9.303162,-0.22247314,0.31072998,1
434,9.2708435,-0.24520874,0.3825531,1
435,9.224152,-0.18536377,0.4388275,1
436,9.190628,-0.20330810000000002,0.40888977,1
437,9.234924000000001,-0.19972229,0.4112854,1
438,9.226547,-0.21409607,0.3717804,1
439,9.303162,-0.22007751,0.4040985,1
440,9.266052,-0.21768188,0.3310852,1
441,9.305557,-0.23564148,0.35263062,1
442,9.291183,-0.22366333,0.37417603,1
443,9.267242,-0.21170044,0.36819458,1
444,9.240905999999999,-0.14465332,0.3717804,1
445,9.257675,-0.15782166,0.39572144,1
446,9.25647,-0.12908936,0.42684937,1
447,9.261261,-0.13269043,0.45677185,1
448,9.244507,-0.18057251,0.48191833,1
449,9.285202,-0.16021729,0.46635437,1
450,9.29837,-0.14465332,0.44480896,1
451,9.260071,-0.12908936,0.44480896,1
452,9.225342,-0.12669373,0.5190277,1
453,9.280411,-0.12550354,0.47833252,1
454,9.301956,-0.16261292,0.40649414,1
455,9.249298,-0.14225769,0.42086792,1
456,9.25647,-0.20930481,0.48191833,1
457,9.264847,-0.20330810000000002,0.54655457,1
458,9.287598,-0.1877594,0.53578186,1
459,9.251678,-0.18655396,0.54177856,1
460,9.214569000000001,-0.14944458,0.5489501999999999,1
461,9.262466,-0.17936707,0.53219604,1
462,9.251678,-0.22486877,0.5381775,1
463,9.285202,-0.20451355,0.57289124,1
464,9.260071,-0.20451355,0.63394165,1
465,9.258865,-0.19853210000000002,0.6375427,1
466,9.260071,-0.17578125,0.6351471,1
467,9.227737,-0.12789917,0.65789795,1
468,9.215775,-0.16261292,0.6650696,1
469,9.21936,-0.11352539,0.6926116999999999,1
470,9.236130000000001,-0.14704895,0.64352417,1
471,9.212173,-0.14825439999999998,0.69740295,1
472,9.254074000000001,-0.17936707,0.6279602,1
473,9.284011999999999,-0.2212677,0.6555023,1
474,9.263657,-0.19613647,0.602829,1
475,9.225342,-0.1877594,0.64112854,1
476,9.208588,-0.20809937,0.6315613,1
477,9.242111,-0.22486877,0.65190125,1
478,9.23732,-0.19134521,0.6483154000000001,1
479,9.263657,-0.1925354,0.6710663,1
480,9.228943,-0.19134521,0.6483154000000001,1
481,9.224152,-0.23324585,0.6279602,1
482,9.244507,-0.24401855,0.6375427,1
483,9.268448,-0.2607727,0.70578,1
484,9.266052,-0.29548645,0.6770477,1
485,9.2708435,-0.34338379999999996,0.6351471,1
486,9.263657,-0.3481598,0.63993835,1
487,9.23732,-0.30148315,0.6064148,1
488,9.243300999999999,-0.24880981,0.66148376,1
489,9.304352,-0.25360107,0.6279602,1
490,9.288788,-0.27035522,0.58366394,1
491,9.224152,-0.33259583,0.6818390000000001,1
492,9.23851,-0.30986023,0.68782043,1
493,9.284011999999999,-0.25360107,0.6710663,1
494,9.224152,-0.19732666,0.5920563,1
495,9.208588,-0.21887207,0.6243744000000001,1
496,9.212173,-0.17459106,0.6710663,1
497,9.220566,-0.14944458,0.71894836,1
498,9.208588,-0.10395813,0.75964355,1
499,9.193024000000001,-0.117126465,0.72732544,1
500,9.182250999999999,-0.18536377,0.7620392,1
501,9.227737,-0.289505,0.7321167,1
502,9.240905999999999,-0.3469696,0.7931670999999999,1
503,9.196625,-0.34457397,0.80033875,1
504,9.208588,-0.2966919,0.85661316,1
505,9.303162,-0.30625916,0.9404144,1
506,9.331894,-0.31704712,0.9128723,1
507,9.25647,-0.36611938,0.84703064,1
508,9.129578,-0.39126587,0.7716217,1
509,9.072113,-0.44154358,0.70817566,1
510,9.201400999999999,-0.5097656,0.6531066999999999,1
511,9.206192,-0.5432892,0.3490448,1
512,9.214569000000001,-0.7599640000000001,0.18144226,1
513,9.347458,-0.87968445,0.23292542,1
514,9.358231,-1.0376892,0.25926208,1
515,9.306747,-1.0807953000000001,0.39213562,1
516,9.348647999999999,-1.1011353000000002,0.47833252,1
517,9.358231,-1.0640258999999999,0.5633239999999999,1
518,9.390549,-1.1131133999999998,0.63035583,1
519,9.345061999999999,-1.0771941999999999,0.6387329,1
520,9.300766000000001,-1.0831909,0.72732544,1
521,9.272034,-1.0604401,0.8913269,1
522,9.221756,-1.1047363000000001,0.8590088,1
523,9.187042,-1.1286774,0.6746521,1
524,9.213379,-1.0724182,0.6267699999999999,1
525,9.214569000000001,-0.9766388,0.7368927,1
526,9.193024000000001,-0.8712921,0.95835876,1
527,9.203796,-0.7779235999999999,1.1391296,1
528,9.167892,-0.7551727,1.2133483999999999,1
529,9.190628,-0.8497466999999999,1.2085571000000002,1
530,9.164291,-0.9467163000000001,1.0780792,1
531,9.051772999999999,-0.9107970999999999,0.9775238000000002,1
532,9.153519000000001,-0.73243713,0.9284363000000001,1
533,9.236130000000001,-0.7384185999999999,0.90689087,1
534,9.245697,-0.6725769,1.033783,1
535,9.218169999999999,-0.67497253,1.0780792,1
536,9.189438,-0.5744170999999999,1.0720825,1
537,9.153519000000001,-0.581604,1.0218048,1
538,9.202606,-0.6294860999999999,1.0313873,1
539,9.193024000000001,-0.680954,1.0469513000000001,1
540,9.17627,-0.71328735,0.9966735999999999,1
541,9.21936,-0.77433777,0.9032898000000001,1
542,9.25647,-0.86172485,0.8625946,1
543,9.279221000000001,-0.8688965,0.760849,1
544,9.285202,-0.8868560999999999,0.6315613,1
545,9.266052,-0.89045715,0.55374146,1
546,9.276825,-0.8988341999999999,0.47354126,1
547,9.281616,-0.92037964,0.43522644,1
548,9.279221000000001,-0.9143982,0.43043518,1
549,9.322311000000001,-0.8892517,0.42684937,1
550,9.304352,-0.86291504,0.36460876,1
551,9.279221000000001,-0.8569336,0.3598175,1
552,9.236130000000001,-0.91319275,0.38136292,1
553,9.25528,-0.89523315,0.42805479999999996,1
554,9.276825,-0.86172485,0.43762207,1
555,9.273239,-0.9084015,0.5441741999999999,1
556,9.276825,-0.89523315,0.5860595999999999,1
557,9.23732,-0.9072113000000002,0.6351471,1
558,9.226547,-0.88087463,0.7404938,1
559,9.210983,-0.85095215,0.77401733,1
560,9.264847,-0.8677063,0.7931670999999999,1
561,9.281616,-0.8760834000000001,0.74887085,1
562,9.323516999999999,-0.8593291999999999,0.7548523,1
563,9.340271000000001,-0.81144714,0.70217896,1
564,9.443222,-0.8282013,0.5920563,1
565,9.414489999999999,-0.88327026,0.6495055999999999,1
566,9.306747,-0.9251709000000001,0.61479187,1
567,9.224152,-0.8784790000000001,0.61479187,1
568,9.0793,-0.8246155000000001,0.63394165,1
569,9.019455,-0.79467773,0.65908813,1
570,9.175064,-0.8186188,0.7249298000000001,1
571,9.175064,-0.74560547,0.6459198,1
572,9.124786,-0.55526733,0.5441741999999999,1
573,9.161896,-0.50138855,0.5764923000000001,1
574,9.125992,-0.6222991999999999,0.61120605,1
575,9.145142,-0.7024994000000001,0.58366394,1
576,9.184647,-0.83657837,0.65190125,1
577,9.2708435,-0.89045715,0.60762024,1
578,9.25528,-1.0293120999999998,0.6555023,1
579,9.21936,-1.0795898000000002,0.66148376,1
580,9.187042,-1.0951538,0.80752563,1
581,9.123596000000001,-1.0352936,0.8410492,1
582,9.070922999999999,-1.0065765,0.8709716999999999,1
583,9.114014,-1.0975494,0.9092865,1
584,9.149933,-1.186142,0.96195984,1
585,9.094864,-1.1490326000000002,0.9703369000000001,1
586,9.21936,-1.2208557,1.0708923000000001,1
587,9.533005000000001,-1.4315338,1.0373688,1
588,9.550964,-1.5368805,0.8841399999999999,1
589,9.506668,-1.5273132,0.8997040000000001,1
590,9.449203500000001,-1.562027,0.72013855,1
591,9.200211,-1.4590758999999998,0.5118408,1
592,8.972763,-1.2016907,0.42684937,1
593,9.114014,-0.8305969000000001,0.36579895,1
594,9.348647999999999,-0.59117126,0.36698914,1
595,9.239716,-0.37449646,0.43522644,1
596,8.936844,-0.22605896,0.5800781,1
597,8.671097,-0.35176086,0.844635,1
598,8.880585,-0.73483276,0.96315,1
599,9.260071,-0.98023987,0.65071106,1
600,9.327103,-0.89523315,0.34544373,1
601,9.289992999999999,-0.7013092,0.34065247,1
602,9.194229,-0.7084961,0.41368103,1
603,9.114014,-1.0149536,0.8434448,1
604,9.210983,-1.2795105,1.1989746000000001,1
605,9.351044,-1.4483032,1.2779846000000001,1
606,9.218169999999999,-1.3956298999999999,1.291153,1
607,9.267242,-1.2723236,1.4120636,1
608,9.151123,-1.3549194,1.1427155,1
609,9.260071,-1.4710388,0.8218994000000001,1
610,9.189438,-1.5680083999999999,0.47354126,1
611,9.246902,-1.3537291999999999,0.30235290000000004,1
612,9.378571,-1.0747986,0.58366394,1
613,9.383362,-1.0975494,0.79196167,1
614,9.425262,-1.186142,0.8542175,1
615,9.372589,-1.2364197000000001,0.8195038,1
616,9.153519000000001,-1.2232513,0.7943573,1
617,9.075714,-1.2471923999999999,0.8135071,1
618,9.032608,-1.2016907,0.8889313,1
619,9.043396000000001,-1.131073,1.0529327,1
620,9.123596000000001,-1.0628357,1.1115875,1
621,9.051772999999999,-1.0400848,1.1894073,1
622,9.151123,-1.1430358999999999,1.1750336000000001,1
623,9.088882,-1.3058471999999999,1.1331328999999999,1
624,9.003891000000001,-1.506958,1.2169341999999999,1
625,9.100845,-1.5548401,1.2528534,1
626,9.171478,-1.451889,1.1774292,1
627,9.17627,-1.5009766000000002,1.0804749,1
628,9.153519000000001,-1.4387207,0.9523773000000001,1
629,9.178664999999999,-1.2747191999999998,0.79556274,1
630,9.236130000000001,-1.0388947,0.71055603,1
631,9.184647,-1.0400848,0.6926116999999999,1
632,9.17746,-1.0867767,0.7620392,1
633,9.242111,-1.1059265,0.8530120999999999,1
634,9.250488,-1.0305176,0.83865356,1
635,9.233734,-0.9550934000000001,0.8147125,1
636,9.261261,-0.85572815,0.8254851999999999,1
637,9.274429,-0.84017944,0.8230896000000001,1
638,9.282805999999999,-0.9910126,0.7572479,1
639,9.242111,-1.0448761,0.8015441999999999,1
640,9.152328500000001,-0.98501587,0.7763977,1
641,9.104446000000001,-0.85095215,0.79556274,1
642,9.199005,-0.77552795,0.80752563,1
643,9.276825,-0.75756836,0.8015441999999999,1
644,9.29718,-0.7982788000000001,0.81710815,1
645,9.288788,-0.88327026,0.78956604,1
646,9.331894,-0.9610748,0.844635,1
647,9.269638,-1.0173492,0.83865356,1
648,9.214569000000001,-1.0412903,0.7404938,1
649,9.244507,-1.0388947,0.7464751999999999,1
650,9.21936,-1.0137482,0.6830291999999999,1
651,9.146347,-0.91200256,0.66867065,1
652,9.146347,-0.9191742,0.7823944,1
653,9.222961,-0.95269775,0.7692260999999999,1
654,9.23851,-0.94192505,0.7249298000000001,1
655,9.239716,-0.90242004,0.7069701999999999,1
656,9.234924000000001,-0.9263610999999999,0.7799988,1
657,9.243300999999999,-0.8784790000000001,0.83506775,1
658,9.225342,-0.9060210999999999,0.90689087,1
659,9.248092999999999,-0.9646759,0.89730835,1
660,9.193024000000001,-0.98501587,0.9128723,1
661,9.183456,-1.0233306999999998,0.87815857,1
662,9.239716,-1.0317078000000002,0.8542175,1
663,9.154724,-1.0472716999999998,0.83984375,1
664,9.146347,-1.0269165,0.85661316,1
665,9.215775,-0.9622803,0.9380188,1
666,9.239716,-0.9215698,0.939209,1
667,9.252884,-0.8593291999999999,0.8997040000000001,1
668,9.268448,-0.82940674,0.8230896000000001,1
669,9.216965,-0.82940674,0.7620392,1
670,9.200211,-0.8569336,0.78118896,1
671,9.214569000000001,-0.80545044,0.81829834,1
672,9.216965,-0.86291504,0.7644348000000001,1
673,9.181061,-0.8892517,0.7716217,1
674,9.210983,-0.9287566999999999,0.7931670999999999,1
675,9.220566,-0.9622803,0.74168396,1
676,9.232529,-0.9934082000000001,0.7285156,1
677,9.215775,-1.0161438,0.69859314,1
678,9.232529,-1.0017853,0.72732544,1
679,9.222961,-1.0089569,0.765625,1
680,9.233734,-1.0137482,0.76683044,1
681,9.230133,-0.99938965,0.7943573,1
682,9.250488,-1.0005798000000001,0.7512665,1
683,9.244507,-1.0149536,0.78956604,1
684,9.232529,-0.97784424,0.80033875,1
685,9.244507,-1.0053710999999999,0.7823944,1
686,9.221756,-0.92996216,0.70578,1
687,9.200211,-0.8988341999999999,0.7404938,1
688,9.216965,-0.91200256,0.760849,1
689,9.205002,-0.95150757,0.7464751999999999,1
690,9.220566,-0.9275665000000001,0.77879333,1
691,9.206192,-0.8868560999999999,0.80633545,1
692,9.226547,-0.83418274,0.79914856,1
693,9.244507,-0.83657837,0.80633545,1
694,9.182250999999999,-0.83657837,0.76683044,1
695,9.212173,-0.84017944,0.73091125,1
696,9.249298,-0.8581238000000001,0.70098877,1
697,9.242111,-0.9167938,0.6207885999999999,1
698,9.230133,-0.9323425,0.6459198,1
699,9.21936,-0.9215698,0.66867065,1
700,9.213379,-0.9646759,0.666275,1
701,9.212173,-0.9754485999999999,0.6542969,1
702,9.2313385,-1.0065765,0.6447295999999999,1
703,9.254074000000001,-1.0724182,0.6638794,1
704,9.240905999999999,-1.0747986,0.6136017,1
705,9.232529,-1.0568541999999999,0.6159973000000001,1
706,9.263657,-1.0293120999999998,0.666275,1
707,9.210983,-1.0245209000000002,0.6351471,1
708,9.25528,-1.0089569,0.66986084,1
709,9.226547,-0.99220276,0.6315613,1
710,9.203796,-0.9550934000000001,0.6243744000000001,1
711,9.233734,-0.8928528,0.61839294,1
712,9.23851,-0.9107970999999999,0.6171875,1
713,9.236130000000001,-0.8677063,0.6459198,1
714,9.226547,-0.82940674,0.6363373000000001,1
715,9.2313385,-0.8964386000000001,0.6267699999999999,1
716,9.226547,-0.9048156999999999,0.6243744000000001,1
717,9.234924000000001,-0.94551086,0.58966064,1
718,9.252884,-0.9503021,0.6171875,1
719,9.213379,-0.9826355,0.63394165,1
720,9.234924000000001,-0.9838256999999999,0.666275,1
721,9.201400999999999,-0.9610748,0.6782379,1
722,9.221756,-0.9957886,0.6830291999999999,1
723,9.248092999999999,-0.9682617,0.71894836,1
724,9.197815,-0.94192505,0.6926116999999999,1
725,9.228943,-0.91200256,0.67944336,1
726,9.254074000000001,-0.8928528,0.686615,1
727,9.25647,-0.90242004,0.67344666,1
728,9.193024000000001,-0.8677063,0.7153473000000001,1
729,9.25528,-0.8820648000000001,0.7368927,1
730,9.276825,-0.92037964,0.6483154000000001,1
731,9.234924000000001,-0.92396545,0.61239624,1
732,9.233734,-0.92396545,0.66867065,1
733,9.185837,-0.92277527,0.7249298000000001,1
734,9.23851,-0.9263610999999999,0.6997833000000001,1
735,9.203796,-0.8964386000000001,0.6674651999999999,1
736,9.199005,-0.93473816,0.6926116999999999,1
737,9.23851,-0.9610748,0.6782379,1
738,9.222961,-0.9395294,0.66986084,1
739,9.201400999999999,-0.92996216,0.6890106,1
740,9.226547,-0.92037964,0.6854248000000001,1
741,9.250488,-0.89045715,0.6710663,1
742,9.274429,-0.95269775,0.6818390000000001,1
743,9.222961,-0.9443207,0.6950073,1
744,9.226547,-0.93473816,0.6842345999999999,1
745,9.2313385,-0.9287566999999999,0.6830291999999999,1
746,9.220566,-0.9263610999999999,0.70098877,1
747,9.233734,-0.9359436,0.721344,1
748,9.213379,-0.90122986,0.71655273,1
749,9.250488,-0.8712921,0.70217896,1
750,9.222961,-0.8988341999999999,0.7368927,1
751,9.216965,-0.8928528,0.7033844,1
752,9.226547,-0.9323425,0.71894836,1
753,9.226547,-0.9431305,0.686615,1
754,9.222961,-0.9443207,0.67944336,1
755,9.248092999999999,-0.9072113000000002,0.67944336,1
756,9.209793,-0.91319275,0.66267395,1
757,9.221756,-0.94192505,0.6950073,1
758,9.267242,-0.91319275,0.72013855,1
759,9.239716,-0.9682617,0.7249298000000001,1
760,9.225342,-0.97184753,0.6818390000000001,1
761,9.226547,-0.94192505,0.71894836,1
762,9.234924000000001,-0.89523315,0.70217896,1
763,9.261261,-0.8748931999999999,0.7033844,1
764,9.264847,-0.9443207,0.6961975,1
765,9.178664999999999,-0.8988341999999999,0.6890106,1
766,9.21936,-0.9191742,0.71655273,1
767,9.280411,-0.9431305,0.6531066999999999,1
768,9.234924000000001,-0.92996216,0.6483154000000001,1
769,9.196625,-0.92996216,0.69021606,1
770,9.214569000000001,-0.9431305,0.74528503,1
771,9.221756,-0.87368774,0.74768066,1
772,9.222961,-0.89045715,0.75964355,1
773,9.193024000000001,-0.92277527,0.7249298000000001,1
774,9.222961,-0.94192505,0.7404938,1
775,9.250488,-0.9287566999999999,0.71295166,1
776,9.240905999999999,-0.9000244000000001,0.721344,1
777,9.225342,-0.8988341999999999,0.72972107,1
778,9.220566,-0.9000244000000001,0.75845337,1
779,9.23851,-0.92037964,0.72972107,1
780,9.23732,-0.92277527,0.72732544,1
781,9.222961,-0.94911194,0.7177429,1
782,9.230133,-0.94551086,0.70817566,1
783,9.214569000000001,-0.92996216,0.74168396,1
784,9.213379,-0.93473816,0.72612,1
785,9.220566,-0.95988464,0.77760315,1
786,9.212173,-0.9048156999999999,0.71295166,1
787,9.195419000000001,-0.9287566999999999,0.72372437,1
788,9.2313385,-0.9467163000000001,0.6854248000000001,1
789,9.228943,-0.97065735,0.7069701999999999,1
790,9.232529,-0.9359436,0.7069701999999999,1
791,9.224152,-0.93473816,0.67344666,1
792,9.228943,-0.9275665000000001,0.7357024999999999,1
793,9.232529,-0.92996216,0.6950073,1
794,9.25647,-0.9443207,0.6818390000000001,1
795,9.207397,-0.9371338,0.67944336,1
796,9.216965,-0.9539032,0.7069701999999999,1
797,9.250488,-0.9275665000000001,0.7333069000000001,1
798,9.228943,-0.9251709000000001,0.6926116999999999,1
799,9.23851,-0.93115234,0.72972107,1
800,9.208588,-0.9275665000000001,0.6854248000000001,1
801,9.201400999999999,-0.92396545,0.7536621,1
802,9.228943,-0.8976288,0.7321167,1
803,9.248092999999999,-0.9275665000000001,0.71055603,1
804,9.221756,-0.917984,0.7536621,1
805,9.187042,-0.9155884,0.74768066,1
806,9.264847,-0.9479065000000001,0.7428894,1
807,9.262466,-0.9263610999999999,0.65071106,1
808,9.214569000000001,-0.94073486,0.6375427,1
809,9.209793,-0.9479065000000001,0.7177429,1
810,9.220566,-0.9191742,0.75964355,1
811,9.220566,-0.89404297,0.75006104,1
812,9.203796,-0.87249756,0.6997833000000001,1
813,9.200211,-0.9036255,0.6650696,1
814,9.227737,-0.94073486,0.6938019,1
815,9.239716,-0.9143982,0.6890106,1
816,9.243300999999999,-0.9431305,0.6938019,1
817,9.197815,-0.9143982,0.70936584,1
818,9.191833500000001,-0.92277527,0.7225342,1
819,9.2313385,-0.9467163000000001,0.75006104,1
820,9.215775,-0.90122986,0.69740295,1
821,9.195419000000001,-0.90960693,0.6746521,1
822,9.243300999999999,-0.9155884,0.75006104,1
823,9.218169999999999,-0.8976288,0.75845337,1
824,9.216965,-0.91319275,0.6997833000000001,1
825,9.239716,-0.9048156999999999,0.7357024999999999,1
826,9.248092999999999,-0.917984,0.7033844,1
827,9.233734,-0.8964386000000001,0.6818390000000001,1
828,9.216965,-0.8593291999999999,0.6710663,1
829,9.224152,-0.87249756,0.6818390000000001,1
830,9.248092999999999,-0.8665161,0.67225647,1
831,9.227737,-0.9072113000000002,0.6890106,1
832,9.221756,-0.92396545,0.71655273,1
833,9.243300999999999,-0.93473816,0.72972107,1
834,9.261261,-0.9371338,0.7440796,1
835,9.215775,-0.94192505,0.7069701999999999,1
836,9.21936,-0.9335479999999999,0.7967529000000001,1
837,9.185837,-0.9275665000000001,0.7464751999999999,1
838,9.213379,-0.92037964,0.7716217,1
839,9.239716,-0.92996216,0.7249298000000001,1
840,9.232529,-0.9359436,0.7117614999999999,1
841,9.225342,-0.9287566999999999,0.7620392,1
842,9.220566,-0.8964386000000001,0.7752074999999999,1
843,9.243300999999999,-0.8880615,0.6997833000000001,1
844,9.203796,-0.92396545,0.65908813,1
845,9.167892,-0.9371338,0.7117614999999999,1
846,9.29718,-0.94192505,0.6710663,1
847,9.285202,-0.97424316,0.5848694000000001,1
848,9.200211,-0.94911194,0.5992279,1
849,9.215775,-0.9215698,0.63394165,1
850,9.201400999999999,-0.9191742,0.6315613,1
851,9.224152,-0.87249756,0.6854248000000001,1
852,9.230133,-0.9107970999999999,0.6566925,1
853,9.232529,-0.9215698,0.6531066999999999,1
854,9.242111,-0.9335479999999999,0.6351471,1
855,9.248092999999999,-0.8868560999999999,0.6495055999999999,1
856,9.251678,-0.9431305,0.6279602,1
857,9.244507,-0.89523315,0.6052246,1
858,9.203796,-0.9191742,0.5693054,1
859,9.236130000000001,-0.9682617,0.62316895,1
860,9.228943,-0.93473816,0.6243744000000001,1
861,9.209793,-0.9191742,0.6267699999999999,1
862,9.250488,-0.9191742,0.58128357,1
863,9.2313385,-0.9215698,0.58128357,1
864,9.215775,-0.92396545,0.53938293,1
865,9.206192,-0.9143982,0.59324646,1
866,9.214569000000001,-0.9191742,0.5764923000000001,1
867,9.23851,-0.9060210999999999,0.5693054,1
868,9.222961,-0.9072113000000002,0.5166321,1
869,9.23851,-0.9335479999999999,0.54776,1
870,9.242111,-0.9287566999999999,0.57528687,1
871,9.2313385,-0.89523315,0.5585326999999999,1
872,9.228943,-0.89045715,0.5872649999999999,1
873,9.232529,-0.91200256,0.62197876,1
874,9.221756,-0.9215698,0.62916565,1
875,9.220566,-0.9107970999999999,0.6447295999999999,1
876,9.239716,-0.9371338,0.6351471,1
877,9.218169999999999,-0.9359436,0.6542969,1
878,9.214569000000001,-0.9335479999999999,0.6531066999999999,1
879,9.25647,-0.9251709000000001,0.6650696,1
880,9.251678,-0.9431305,0.62197876,1
881,9.197815,-0.9371338,0.60401917,1
882,9.227737,-0.8964386000000001,0.65190125,1
883,9.295975,-0.94073486,0.6315613,1
884,9.252884,-0.93833923,0.57170105,1
885,9.23851,-0.89523315,0.57528687,1
886,9.249298,-0.9036255,0.64112854,1
887,9.207397,-0.8533478000000001,0.69859314,1
888,9.214569000000001,-0.81503296,0.6854248000000001,1
889,9.206192,-0.8186188,0.6542969,1
890,9.190628,-0.85572815,0.6674651999999999,1
891,9.221756,-0.85572815,0.6997833000000001,1
892,9.232529,-0.8461609,0.6830291999999999,1
893,9.252884,-0.8485565,0.70936584,1
894,9.236130000000001,-0.8413695999999999,0.68063354,1
895,9.213379,-0.8425598,0.6854248000000001,1
896,9.242111,-0.8880615,0.7045746,1
897,9.240905999999999,-0.9060210999999999,0.6531066999999999,1
898,9.207397,-0.91200256,0.6387329,1
899,9.221756,-0.94073486,0.6495055999999999,1
900,9.25647,-0.94911194,0.66267395,1
901,9.236130000000001,-0.9084015,0.65908813,1
902,9.251678,-0.89523315,0.6459198,1
903,9.244507,-0.92277527,0.6531066999999999,1
904,9.200211,-0.9155884,0.69021606,1
905,9.202606,-0.8964386000000001,0.6638794,1
906,9.188232000000001,-0.89045715,0.7033844,1
907,9.230133,-0.8964386000000001,0.66267395,1
908,9.224152,-0.9359436,0.6818390000000001,1
909,9.233734,-0.90960693,0.6854248000000001,1
910,9.250488,-0.8868560999999999,0.72612,1
911,9.242111,-0.91200256,0.70217896,1
912,9.220566,-0.9060210999999999,0.721344,1
913,9.212173,-0.90122986,0.6770477,1
914,9.251678,-0.9084015,0.69140625,1
915,9.2313385,-0.92277527,0.6842345999999999,1
916,9.215775,-0.9167938,0.6363373000000001,1
917,9.23851,-0.92396545,0.6351471,1
918,9.278015,-0.94551086,0.65789795,1
919,9.245697,-0.95150757,0.6758423000000001,1
920,9.203796,-0.93115234,0.7357024999999999,1
921,9.244507,-0.9323425,0.75006104,1
922,9.263657,-0.8784790000000001,0.65190125,1
923,9.208588,-0.8784790000000001,0.74768066,1
924,9.17627,-0.8485565,0.7141571,1
925,9.188232000000001,-0.8126373,0.7728119000000001,1
926,9.216965,-0.8090515,0.78718567,1
927,9.233734,-0.8246155000000001,0.7177429,1
928,9.193024000000001,-0.88087463,0.7153473000000001,1
929,9.228943,-0.93115234,0.70578,1
930,9.246902,-0.94911194,0.7033844,1
931,9.245697,-0.92037964,0.67944336,1
932,9.225342,-0.9263610999999999,0.6842345999999999,1
933,9.222961,-0.9371338,0.69140625,1
934,9.245697,-0.95988464,0.70098877,1
935,9.239716,-0.9610748,0.72013855,1
936,9.216965,-0.9275665000000001,0.6818390000000001,1
937,9.216965,-0.9084015,0.74168396,1
938,9.220566,-0.9479065000000001,0.7440796,1
939,9.23851,-0.9586792,0.75245667,1
940,9.23851,-0.92037964,0.74768066,1
941,9.23732,-0.8976288,0.74168396,1
942,9.221756,-0.9107970999999999,0.7404938,1
943,9.207397,-0.8964386000000001,0.7512665,1
944,9.215775,-0.90242004,0.70578,1
945,9.212173,-0.8533478000000001,0.70817566,1
946,9.221756,-0.8820648000000001,0.72612,1
947,9.228943,-0.8581238000000001,0.6842345999999999,1
948,9.21936,-0.8784790000000001,0.6997833000000001,1
949,9.218169999999999,-0.88327026,0.686615,1
950,9.218169999999999,-0.8593291999999999,0.71894836,1
951,9.218169999999999,-0.88087463,0.6782379,1
952,9.232529,-0.8892517,0.68782043,1
953,9.232529,-0.9155884,0.6459198,1
954,9.234924000000001,-0.9323425,0.6638794,1
955,9.230133,-0.91200256,0.70217896,1
956,9.243300999999999,-0.917984,0.6950073,1
957,9.254074000000001,-0.9610748,0.6650696,1
958,9.193024000000001,-0.98023987,0.6890106,1
959,9.197815,-0.97184753,0.6950073,1
960,9.264847,-0.96707153,0.6602783,1
961,9.262466,-0.95150757,0.5968323,1
962,9.218169999999999,-0.9539032,0.5764923000000001,1
963,9.212173,-0.93115234,0.5884552,1
964,9.240905999999999,-0.97424316,0.58966064,1
965,9.232529,-0.9251709000000001,0.5884552,1
966,9.224152,-0.9431305,0.5381775,1
967,9.2313385,-0.9981841999999999,0.4807129,1
968,9.250488,-0.9443207,0.45916748,1
969,9.254074000000001,-0.95150757,0.45558167,1
970,9.245697,-0.9072113000000002,0.5286102,1
971,9.257675,-0.9060210999999999,0.60762024,1
972,9.206192,-0.89404297,0.6243744000000001,1
973,9.218169999999999,-0.85572815,0.6961975,1
974,9.210983,-0.82940674,0.65789795,1
975,9.203796,-0.8593291999999999,0.65908813,1
976,9.202606,-0.8712921,0.6375427,1
977,9.214569000000001,-0.92996216,0.5513458000000001,1
978,9.243300999999999,-0.9957886,0.56211853,1
979,9.264847,-0.9754485999999999,0.54177856,1
980,9.251678,-0.9826355,0.49029540000000005,1
981,9.248092999999999,-1.0233306999999998,0.46395874,1
982,9.25528,-1.0544586,0.47233582,1
983,9.225342,-1.0688171,0.41607666,1
984,9.221756,-1.0747986,0.42326355,1
985,9.213379,-1.012558,0.41966248,1
986,9.224152,-1.036499,0.4040985,1
987,9.224152,-1.0041809000000002,0.42684937,1
988,9.21936,-0.9790344000000001,0.43762207,1
989,9.25647,-0.9335479999999999,0.41009520000000005,1
990,9.252884,-0.9467163000000001,0.38974000000000003,1
991,9.221756,-0.93115234,0.4005127,1
992,9.233734,-0.9263610999999999,0.4388275,1
993,9.279221000000001,-0.9072113000000002,0.41488647,1
994,9.228943,-0.94911194,0.4112854,1
995,9.200211,-0.9658661000000001,0.44839478,1
996,9.278015,-0.96946716,0.45439148,1
997,9.262466,-0.97424316,0.44001769999999996,1
998,9.250488,-0.9898070999999999,0.46395874,1
999,9.222961,-0.9539032,0.53338623,1
1000,9.222961,-0.9646759,0.56092834,1
1001,9.220566,-0.9072113000000002,0.59085083,1
1002,9.213379,-0.9251709000000001,0.5956421,1
1003,9.185837,-0.9323425,0.5944519,1
1004,9.227737,-0.9682617,0.5453644,1
1005,9.267242,-0.96946716,0.49987793,1
1006,9.267242,-0.97784424,0.50227356,1
1007,9.245697,-0.9550934000000001,0.47233582,1
1008,9.224152,-1.020935,0.45797730000000003,1
1009,9.263657,-0.98143005,0.5202179,1
1010,9.245697,-0.99938965,0.43762207,1
1011,9.239716,-0.94073486,0.5286102,1
1012,9.209793,-0.9658661000000001,0.5010680999999999,1
1013,9.203796,-0.94551086,0.47952269999999997,1
1014,9.221756,-0.9143982,0.5118408,1
1015,9.2313385,-0.9155884,0.5298004,1
1016,9.208588,-0.8928528,0.53938293,1
1017,9.220566,-0.917984,0.5441741999999999,1
1018,9.210983,-0.8856659,0.53219604,1
1019,9.208588,-0.9263610999999999,0.5178375,1
1020,9.244507,-0.9251709000000001,0.5046692,1
1021,9.249298,-0.9371338,0.50704956,1
1022,9.226547,-0.93115234,0.50346375,1
1023,9.236130000000001,-0.95269775,0.45079040000000004,1
1024,9.228943,-0.97065735,0.508255,1
1025,9.249298,-0.9562988000000001,0.48191833,1
1026,9.263657,-0.9682617,0.46276855,1
1027,9.224152,-0.9610748,0.48789978,1
1028,9.245697,-0.9395294,0.49987793,1
1029,9.236130000000001,-0.9191742,0.47354126,1
1030,9.281616,-0.93473816,0.49987793,1
1031,9.239716,-0.92996216,0.48670959999999996,1
1032,9.17627,-0.8988341999999999,0.5669098000000001,1
1033,9.262466,-0.9431305,0.57289124,1
1034,9.289992999999999,-0.9275665000000001,0.50346375,1
1035,9.224152,-0.9335479999999999,0.49508667,1
1036,9.207397,-0.9287566999999999,0.48789978,1
1037,9.21936,-0.8964386000000001,0.5381775,1
1038,9.258865,-0.9036255,0.54296875,1
1039,9.2313385,-0.9107970999999999,0.5262146,1
1040,9.197815,-0.9275665000000001,0.5286102,1
1041,9.23851,-1.0017853,0.5094452,1
1042,9.240905999999999,-0.9646759,0.51423645,1
1043,9.268448,-0.9754485999999999,0.5118408,1
1044,9.242111,-0.9479065000000001,0.5154419,1
1045,9.254074000000001,-0.9107970999999999,0.5262146,1
1046,9.227737,-0.94192505,0.56211853,1
1047,9.258865,-0.9539032,0.53578186,1
1048,9.221756,-0.9287566999999999,0.5094452,1
1049,9.220566,-0.9263610999999999,0.49150085,1
1050,9.234924000000001,-0.9574889999999999,0.53100586,1
1051,9.234924000000001,-0.95269775,0.55374146,1
1052,9.240905999999999,-0.97784424,0.5178375,1
1053,9.244507,-0.9479065000000001,0.57170105,1
1054,9.254074000000001,-0.9539032,0.5226135000000001,1
1055,9.23732,-0.9550934000000001,0.56451416,1
1056,9.242111,-0.9431305,0.52500916,1
1057,9.23851,-0.92277527,0.5405731,1
1058,9.240905999999999,-0.9287566999999999,0.50346375,1
1059,9.233734,-0.91200256,0.5166321,1
1060,9.240905999999999,-0.8748931999999999,0.51423645,1
1061,9.222961,-0.9191742,0.5345916999999999,1
1062,9.246902,-0.8892517,0.53938293,1
1063,9.240905999999999,-0.9072113000000002,0.5166321,1
1064,9.228943,-0.9503021,0.5549469,1
1065,9.244507,-0.96707153,0.53338623,1
1066,9.214569000000001,-0.93833923,0.56211853,1
1067,9.2313385,-0.9287566999999999,0.5585326999999999,1
1068,9.291183,-0.9479065000000001,0.5920563,1
1069,9.23851,-0.9574889999999999,0.5489501999999999,1
1070,9.182250999999999,-0.95988464,0.59085083,1
1071,9.262466,-0.9503021,0.5776825,1
1072,9.266052,-0.9574889999999999,0.49388123,1
1073,9.221756,-0.9550934000000001,0.5010680999999999,1
1074,9.209793,-0.9658661000000001,0.508255,1
1075,9.21936,-0.92396545,0.5860595999999999,1
1076,9.239716,-0.9275665000000001,0.5226135000000001,1
1077,9.227737,-0.90960693,0.52142334,1
1078,9.201400999999999,-0.9215698,0.5573273,1
1079,9.224152,-0.9503021,0.53219604,1
1080,9.207397,-0.9682617,0.5573273,1
1081,9.250488,-0.94192505,0.5585326999999999,1
1082,9.236130000000001,-0.94911194,0.5549469,1
1083,9.213379,-0.93115234,0.57528687,1
1084,9.2313385,-0.917984,0.55374146,1
1085,9.242111,-0.9586792,0.5633239999999999,1
1086,9.209793,-0.9167938,0.5549469,1
1087,9.216965,-0.96707153,0.5633239999999999,1
1088,9.23732,-0.92277527,0.58966064,1
1089,9.226547,-0.9395294,0.6064148,1
1090,9.251678,-0.9107970999999999,0.5573273,1
1091,9.23851,-0.90122986,0.60043335,1
1092,9.234924000000001,-0.9000244000000001,0.58966064,1
1093,9.185837,-0.838974,0.5884552,1
1094,9.218169999999999,-0.87368774,0.602829,1
1095,9.230133,-0.9060210999999999,0.55255127,1
1096,9.234924000000001,-0.88327026,0.602829,1
1097,9.2313385,-0.89045715,0.5561371,1
1098,9.205002,-0.9263610999999999,0.56811523,1
1099,9.213379,-0.8976288,0.57289124,1
1100,9.249298,-0.92037964,0.53219604,1
1101,9.252884,-0.9323425,0.55255127,1
1102,9.263657,-0.95269775,0.53219604,1
1103,9.249298,-0.92037964,0.49987793,1
1104,9.23851,-0.93833923,0.52500916,1
1105,9.245697,-0.96946716,0.53219604,1
1106,9.216965,-0.9263610999999999,0.49388123,1
1107,9.250488,-0.9395294,0.5178375,1
1108,9.232529,-0.95269775,0.51304626,1
1109,9.254074000000001,-0.94551086,0.5178375,1
1110,9.239716,-0.9503021,0.45916748,1
1111,9.196625,-0.95988464,0.48910522,1
1112,9.212173,-0.9754485999999999,0.48550415,1
1113,9.299576,-0.996994,0.50704956,1
1114,9.252884,-0.9586792,0.41607666,1
1115,9.249298,-0.9048156999999999,0.42445374,1
1116,9.221756,-0.89404297,0.43762207,1
1117,9.215775,-0.88327026,0.45558167,1
1118,9.221756,-0.89404297,0.43403625,1
1119,9.214569000000001,-0.9323425,0.4986725,1
1120,9.230133,-0.92277527,0.43522644,1
1121,9.239716,-0.9359436,0.43043518,1
1122,9.257675,-0.9479065000000001,0.429245,1
1123,9.233734,-0.95269775,0.38974000000000003,1
1124,9.207397,-0.9060210999999999,0.34783936,1
1125,9.209793,-0.92996216,0.3777771,1
1126,9.250488,-0.93833923,0.38494873,1
1127,9.216965,-0.94911194,0.3825531,1
1128,9.226547,-0.917984,0.3933258,1
1129,9.249298,-0.93473816,0.3705902,1
1130,9.275619500000001,-0.9263610999999999,0.38615417,1
1131,9.245697,-0.9646759,0.38974000000000003,1
1132,9.257675,-0.9838256999999999,0.37657166,1
1133,9.226547,-0.98143005,0.3777771,1
1134,9.21936,-0.94551086,0.37538147,1
1135,9.216965,-0.8868560999999999,0.4112854,1
1136,9.25528,-0.91319275,0.4040985,1
1137,9.252884,-0.8880615,0.40290833,1
1138,9.250488,-0.9000244000000001,0.4328308,1
1139,9.258865,-0.9060210999999999,0.50227356,1
1140,9.267242,-0.92037964,0.46037292,1
1141,9.260071,-0.9467163000000001,0.49508667,1
1142,9.251678,-0.9562988000000001,0.47114563,1
1143,9.23851,-0.97065735,0.48910522,1
1144,9.242111,-1.0017853,0.5058594,1
1145,9.258865,-1.0101624,0.46156309999999995,1
1146,9.258865,-1.0472716999999998,0.47233582,1
1147,9.215775,-1.0388947,0.53578186,1
1148,9.227737,-1.0305176,0.5166321,1
1149,9.268448,-1.052063,0.49269104,1
1150,9.278015,-0.9981841999999999,0.47712708,1
1151,9.216965,-0.9562988000000001,0.42086792,1
1152,9.23732,-0.95269775,0.48431396,1
1153,9.224152,-0.94551086,0.48310852,1
1154,9.21936,-0.9155884,0.51304626,1
1155,9.205002,-0.8976288,0.5381775,1
1156,9.216965,-0.90242004,0.5274048000000001,1
1157,9.243300999999999,-0.9287566999999999,0.49987793,1
1158,9.246902,-0.9107970999999999,0.47833252,1
1159,9.208588,-0.8928528,0.5094452,1
1160,9.234924000000001,-0.8964386000000001,0.5298004,1
1161,9.239716,-0.8988341999999999,0.5154419,1
1162,9.243300999999999,-0.90960693,0.54655457,1
1163,9.243300999999999,-0.8772888000000001,0.53578186,1
1164,9.221756,-0.8988341999999999,0.55015564,1
1165,9.232529,-0.89164734,0.5573273,1
1166,9.239716,-0.93115234,0.5118408,1
1167,9.221756,-0.93115234,0.5202179,1
1168,9.282805999999999,-0.9359436,0.50704956,1
1169,9.215775,-0.9646759,0.51065063,1
1170,9.233734,-0.9658661000000001,0.5166321,1
1171,9.220566,-0.92996216,0.5345916999999999,1
1172,9.267242,-0.92396545,0.48310852,1
1173,9.205002,-0.94192505,0.48550415,1
1174,9.218169999999999,-0.93115234,0.49150085,1
1175,9.25647,-0.9479065000000001,0.49627686,1
1176,9.243300999999999,-0.95988464,0.5345916999999999,1
1177,9.228943,-0.94551086,0.48550415,1
1178,9.210983,-0.9143982,0.49269104,1
1179,9.243300999999999,-0.9263610999999999,0.5405731,1
1180,9.216965,-0.9287566999999999,0.52142334,1
1181,9.25647,-0.97184753,0.5202179,1
1182,9.2313385,-0.9646759,0.508255,1
1183,9.232529,-0.9359436,0.5298004,1
1184,9.262466,-0.9371338,0.5549469,1
1185,9.276825,-0.9622803,0.508255,1
1186,9.196625,-0.93115234,0.5298004,1
1187,9.200211,-0.9155884,0.56811523,1
1188,9.260071,-0.91200256,0.55015564,1
1189,9.228943,-0.9371338,0.48670959999999996,1
1190,9.240905999999999,-0.9503021,0.48191833,1
1191,9.207397,-0.94911194,0.52381897,1
1192,9.243300999999999,-0.9467163000000001,0.5453644,1
1193,9.250488,-0.90960693,0.53100586,1
1194,9.234924000000001,-0.88327026,0.5166321,1
1195,9.205002,-0.9359436,0.55015564,1
1196,9.218169999999999,-0.92996216,0.52381897,1
1197,9.224152,-0.9550934000000001,0.53578186,1
1198,9.23851,-0.96707153,0.5513458000000001,1
1199,9.244507,-0.9646759,0.46276855,1
1200,9.244507,-0.9443207,0.53100586,1
1201,9.240905999999999,-0.97784424,0.58247375,1
1202,9.251678,-0.9503021,0.5657196,1
1203,9.227737,-0.9550934000000001,0.5585326999999999,1
1204,9.228943,-0.917984,0.54296875,1
1205,9.242111,-0.8892517,0.57888794,1
1206,9.25647,-0.9263610999999999,0.5657196,1
1207,9.228943,-0.8976288,0.6136017,1
1208,9.205002,-0.9107970999999999,0.6064148,1
1209,9.222961,-0.91200256,0.56211853,1
1210,9.218169999999999,-0.91200256,0.5585326999999999,1
1211,9.234924000000001,-0.9167938,0.54177856,1
1212,9.257675,-0.9335479999999999,0.5489501999999999,1
1213,9.252884,-0.94073486,0.5274048000000001,1
1214,9.222961,-0.95150757,0.5345916999999999,1
1215,9.215775,-0.9275665000000001,0.56211853,1
1216,9.240905999999999,-0.95988464,0.53578186,1
1217,9.226547,-0.9395294,0.55255127,1
1218,9.262466,-0.9359436,0.5489501999999999,1
1219,9.249298,-0.96347046,0.5633239999999999,1
1220,9.23851,-0.92277527,0.5633239999999999,1
1221,9.215775,-0.9562988000000001,0.5633239999999999,1
1222,9.202606,-0.9359436,0.5561371,1
1223,9.285202,-0.9431305,0.5704956,1
1224,9.243300999999999,-0.91200256,0.5573273,1
1225,9.184647,-0.89164734,0.5740967,1
1226,9.215775,-0.9479065000000001,0.59085083,1
1227,9.29718,-0.9658661000000001,0.5944519,1
1228,9.258865,-0.94192505,0.48310852,1
1229,9.207397,-0.93115234,0.508255,1
1230,9.225342,-0.9060210999999999,0.5369873000000001,1
1231,9.233734,-0.8820648000000001,0.52500916,1
1232,9.221756,-0.9072113000000002,0.52142334,1
1233,9.170288000000001,-0.9143982,0.5369873000000001,1
1234,9.208588,-0.94911194,0.51304626,1
1235,9.25647,-0.93833923,0.47114563,1
1236,9.233734,-0.9539032,0.46395874,1
1237,9.251678,-0.9251709000000001,0.48910522,1
1238,9.227737,-0.9263610999999999,0.49029540000000005,1
1239,9.224152,-0.92277527,0.5202179,1
1240,9.245697,-0.93115234,0.51065063,1
1241,9.242111,-0.9335479999999999,0.44960022,1
1242,9.228943,-0.93833923,0.46516418,1
1243,9.221756,-0.92396545,0.44599915,1
1244,9.240905999999999,-0.9574889999999999,0.47354126,1
1245,9.248092999999999,-0.9263610999999999,0.44122314,1
1246,9.228943,-0.917984,0.47354126,1
1247,9.264847,-0.9263610999999999,0.4807129,1
1248,9.250488,-0.93473816,0.45199585,1
1249,9.216965,-0.93115234,0.41607666,1
1250,9.234924000000001,-0.9167938,0.41249084,1
1251,9.232529,-0.97424316,0.3825531,1
1252,9.25647,-0.9622803,0.34664917,1
1253,9.251678,-0.92277527,0.3598175,1
1254,9.233734,-0.9359436,0.34783936,1
1255,9.268448,-0.9658661000000001,0.36579895,1
1256,9.261261,-0.97424316,0.34544373,1
1257,9.230133,-0.9539032,0.3825531,1
1258,9.236130000000001,-0.9503021,0.40290833,1
1259,9.25647,-0.9622803,0.43043518,1
1260,9.210983,-0.92396545,0.42805479999999996,1
1261,9.194229,-0.95988464,0.4328308,1
1262,9.273239,-0.9443207,0.46635437,1
1263,9.280411,-0.9443207,0.43762207,1
1264,9.228943,-0.94192505,0.39093018,1
1265,9.242111,-0.92996216,0.43762207,1
1266,9.234924000000001,-0.94911194,0.46156309999999995,1
1267,9.23851,-0.9215698,0.43403625,1
1268,9.209793,-0.93115234,0.44480896,1
1269,9.216965,-0.917984,0.4388275,1
1270,9.233734,-0.9275665000000001,0.45797730000000003,1
1271,9.262466,-0.95269775,0.46635437,1
1272,9.244507,-0.95269775,0.4388275,1
1273,9.236130000000001,-0.9287566999999999,0.46395874,1
1274,9.23732,-0.9371338,0.508255,1
1275,9.215775,-0.9036255,0.54177856,1
1276,9.240905999999999,-0.90242004,0.53338623,1
1277,9.23851,-0.8964386000000001,0.5633239999999999,1
1278,9.212173,-0.90960693,0.5381775,1
1279,9.222961,-0.9287566999999999,0.5286102,1
1280,9.206192,-0.9036255,0.56092834,1
1281,9.224152,-0.92996216,0.5693054,1
1282,9.254074000000001,-0.9323425,0.53938293,1
1283,9.212173,-0.9838256999999999,0.5920563,1
1284,9.226547,-0.97424316,0.5010680999999999,1
1285,9.246902,-0.9562988000000001,0.45797730000000003,1
1286,9.233734,-0.9503021,0.47952269999999997,1
1287,9.220566,-0.9167938,0.45677185,1
1288,9.23851,-0.9072113000000002,0.4986725,1
1289,9.242111,-0.8569336,0.47114563,1
1290,9.249298,-0.8988341999999999,0.47833252,1
1291,9.258865,-0.88446045,0.5118408,1
1292,9.258865,-0.8641205,0.51423645,1
1293,9.242111,-0.92037964,0.55015564,1
1294,9.242111,-0.91319275,0.6100005999999999,1
1295,9.230133,-0.9263610999999999,0.60043335,1
1296,9.264847,-0.9574889999999999,0.55255127,1
1297,9.199005,-0.9838256999999999,0.5573273,1
1298,9.21936,-0.9155884,0.5776825,1
1299,9.254074000000001,-0.96347046,0.58128357,1
1300,9.281616,-0.9622803,0.5178375,1
1301,9.2313385,-0.91200256,0.48670959999999996,1
1302,9.197815,-0.9539032,0.48191833,1
1303,9.210983,-0.93833923,0.53578186,1
1304,9.23851,-0.8868560999999999,0.5202179,1
1305,9.240905999999999,-0.8701019,0.5286102,1
1306,9.224152,-0.87249756,0.54177856,1
1307,9.209793,-0.91200256,0.5657196,1
1308,9.239716,-0.917984,0.5549469,1
1309,9.221756,-0.89164734,0.5178375,1
1310,9.251678,-0.92037964,0.5298004,1
1311,9.213379,-0.9036255,0.56092834,1
1312,9.203796,-0.9359436,0.5693054,1
1313,9.23851,-0.9359436,0.6052246,1
1314,9.216965,-0.93473816,0.53100586,1
1315,9.222961,-0.9622803,0.5585326999999999,1
1316,9.260071,-0.9395294,0.5992279,1
1317,9.225342,-0.9263610999999999,0.5453644,1
1318,9.25528,-0.9610748,0.5776825,1
1319,9.242111,-0.9431305,0.57289124,1
1320,9.232529,-0.9275665000000001,0.5693054,1
1321,9.2313385,-0.9730530000000001,0.5561371,1
1322,9.222961,-0.9084015,0.5597229,1
1323,9.23732,-0.9048156999999999,0.5262146,1
1324,9.25528,-0.9191742,0.53219604,1
1325,9.228943,-0.9000244000000001,0.53338623,1
1326,9.23732,-0.94073486,0.5262146,1
1327,9.242111,-0.8964386000000001,0.54296875,1
1328,9.227737,-0.9215698,0.5657196,1
1329,9.254074000000001,-0.9072113000000002,0.5513458000000001,1
1330,9.225342,-0.9215698,0.53938293,1
1331,9.246902,-0.93473816,0.56211853,1
1332,9.227737,-0.93115234,0.6207885999999999,1
1333,9.250488,-0.9275665000000001,0.57170105,1
1334,9.276825,-0.9503021,0.56451416,1
1335,9.224152,-0.9443207,0.5585326999999999,1
1336,9.212173,-0.93833923,0.5764923000000001,1
1337,9.250488,-0.96707153,0.60043335,1
1338,9.261261,-0.9646759,0.49627686,1
1339,9.195419000000001,-0.9395294,0.5154419,1
1340,9.222961,-0.93473816,0.5872649999999999,1
1341,9.23851,-0.8976288,0.6255646,1
1342,9.23851,-0.90242004,0.57170105,1
1343,9.222961,-0.8641205,0.58247375,1
1344,9.209793,-0.89404297,0.5944519,1
1345,9.228943,-0.9107970999999999,0.59085083,1
1346,9.228943,-0.9275665000000001,0.5669098000000001,1
1347,9.252884,-0.9215698,0.5776825,1
1348,9.216965,-0.9215698,0.5740967,1
1349,9.201400999999999,-0.90960693,0.602829,1
1350,9.234924000000001,-0.8928528,0.56451416,1
1351,9.188232000000001,-0.91319275,0.60401917,1
1352,9.232529,-0.93473816,0.5860595999999999,1
1353,9.228943,-0.9395294,0.55015564,1
1354,9.23732,-0.93473816,0.5453644,1
1355,9.254074000000001,-0.94911194,0.5274048000000001,1
1356,9.249298,-0.89045715,0.56211853,1
1357,9.244507,-0.9359436,0.5118408,1
1358,9.23732,-0.9167938,0.5441741999999999,1
1359,9.280411,-0.9359436,0.48550415,1
1360,9.232529,-0.9503021,0.49748230000000004,1
1361,9.224152,-0.9730530000000001,0.46994020000000003,1
1362,9.225342,-0.9682617,0.45439148,1
1363,9.242111,-0.9443207,0.47712708,1
1364,9.216965,-0.93833923,0.44360352,1
1365,9.257675,-0.92396545,0.5058594,1
1366,9.234924000000001,-0.8964386000000001,0.5202179,1
1367,9.248092999999999,-0.9323425,0.48550415,1
1368,9.246902,-0.9251709000000001,0.46395874,1
1369,9.251678,-0.9658661000000001,0.41966248,1
1370,9.244507,-0.93833923,0.44720459999999995,1
1371,9.222961,-0.9395294,0.44241333,1
1372,9.2708435,-0.95269775,0.4040985,1
1373,9.254074000000001,-0.9574889999999999,0.40769958,1
1374,9.208588,-0.98861694,0.4184723,1
1375,9.289992999999999,-0.9562988000000001,0.44839478,1
1376,9.275619500000001,-0.98023987,0.36938477,1
1377,9.246902,-0.94911194,0.34065247,1
1378,9.234924000000001,-0.9251709000000001,0.37896729999999995,1
1379,9.2313385,-0.92037964,0.4184723,1
1380,9.225342,-0.8820648000000001,0.3705902,1
1381,9.199005,-0.9048156999999999,0.3885498,1
1382,9.210983,-0.94911194,0.39932249999999997,1
1383,9.276825,-0.96707153,0.36460876,1
1384,9.263657,-0.97424316,0.39213562,1
1385,9.244507,-0.9359436,0.37896729999999995,1
1386,9.254074000000001,-0.93115234,0.40290833,1
1387,9.224152,-0.9191742,0.46395874,1
1388,9.214569000000001,-0.9539032,0.48910522,1
1389,9.215775,-0.93115234,0.508255,1
1390,9.233734,-0.93833923,0.48910522,1
1391,9.227737,-0.9443207,0.50704956,1
1392,9.252884,-0.91200256,0.51065063,1
1393,9.2313385,-0.91200256,0.47712708,1
1394,9.242111,-0.92277527,0.48431396,1
1395,9.248092999999999,-0.90242004,0.54655457,1
1396,9.260071,-0.9155884,0.54776,1
1397,9.236130000000001,-0.93473816,0.55015564,1
1398,9.236130000000001,-0.8976288,0.55374146,1
1399,9.250488,-0.9084015,0.55374146,1
1400,9.232529,-0.8856659,0.5513458000000001,1
1401,9.224152,-0.9215698,0.51065063,1
1402,9.236130000000001,-0.95269775,0.54296875,1
1403,9.230133,-0.9143982,0.5405731,1
1404,9.201400999999999,-0.9323425,0.53578186,1
1405,9.234924000000001,-0.91200256,0.54177856,1
1406,9.246902,-0.8748931999999999,0.53219604,1
1407,9.245697,-0.9263610999999999,0.57528687,1
1408,9.196625,-0.9000244000000001,0.60162354,1
1409,9.213379,-0.9107970999999999,0.56811523,1
1410,9.274429,-0.95150757,0.5764923000000001,1
1411,9.221756,-0.9155884,0.6267699999999999,1
1412,9.206192,-0.9323425,0.62197876,1
1413,9.23732,-0.97184753,0.6064148,1
1414,9.269638,-0.9658661000000001,0.5776825,1
1415,9.233734,-0.9586792,0.5489501999999999,1
1416,9.251678,-0.94192505,0.5381775,1
1417,9.226547,-0.9503021,0.6136017,1
1418,9.201400999999999,-0.8928528,0.5764923000000001,1
1419,9.220566,-0.9084015,0.5872649999999999,1
1420,9.193024000000001,-0.8964386000000001,0.61239624,1
1421,9.216965,-0.90242004,0.5944519,1
1422,9.232529,-0.94551086,0.5980376999999999,1
1423,9.243300999999999,-0.89045715,0.5872649999999999,1
1424,9.233734,-0.90242004,0.61839294,1
1425,9.239716,-0.9323425,0.61120605,1
1426,9.232529,-0.9503021,0.64352417,1
1427,9.251678,-0.9395294,0.6483154000000001,1
1428,9.215775,-0.9479065000000001,0.6471100000000001,1
1429,9.215775,-0.8760834000000001,0.6207885999999999,1
1430,9.208588,-0.89404297,0.64352417,1
1431,9.228943,-0.9335479999999999,0.602829,1
1432,9.220566,-0.94551086,0.61839294,1
1433,9.221756,-0.95269775,0.61239624,1
1434,9.234924000000001,-0.8976288,0.6136017,1
1435,9.228943,-0.8760834000000001,0.6542969,1
1436,9.218169999999999,-0.9084015,0.6602783,1
1437,9.184647,-0.9048156999999999,0.6279602,1
1438,9.228943,-0.9143982,0.6375427,1
1439,9.216965,-0.91200256,0.6483154000000001,1
1440,9.227737,-0.9143982,0.64112854,1
1441,9.213379,-0.9287566999999999,0.6459198,1
1442,9.213379,-0.91200256,0.6542969,1
1443,9.209793,-0.8880615,0.63275146,1
1444,9.234924000000001,-0.91319275,0.6255646,1
1445,9.218169999999999,-0.93833923,0.642334,1
1446,9.243300999999999,-0.9335479999999999,0.63993835,1
1447,9.248092999999999,-0.96347046,0.63275146,1
1448,9.258865,-0.9550934000000001,0.6207885999999999,1
1449,9.230133,-0.9945984,0.6818390000000001,1
1450,9.209793,-0.95269775,0.6471100000000001,1
1451,9.218169999999999,-0.93473816,0.6447295999999999,1
1452,9.248092999999999,-0.9658661000000001,0.6351471,1
1453,9.214569000000001,-0.9467163000000001,0.63993835,1
1454,9.183456,-0.92396545,0.6638794,1
1455,9.261261,-0.9335479999999999,0.6782379,1
1456,9.301956,-0.9359436,0.6351471,1
1457,9.227737,-0.90122986,0.61239624,1
1458,9.202606,-0.92037964,0.6495055999999999,1
1459,9.194229,-0.9335479999999999,0.6758423000000001,1
1460,9.240905999999999,-0.89164734,0.6542969,1
1461,9.208588,-0.9084015,0.63035583,1
1462,9.190628,-0.94551086,0.642334,1
1463,9.221756,-0.9646759,0.65908813,1
1464,9.249298,-0.9646759,0.642334,1
1465,9.215775,-0.92037964,0.66148376,1
1466,9.232529,-0.9191742,0.68782043,1
1467,9.200211,-0.9431305,0.7033844,1
1468,9.226547,-0.9287566999999999,0.721344,1
1469,9.227737,-0.93833923,0.72013855,1
1470,9.194229,-0.97184753,0.66148376,1
1471,9.222961,-0.9682617,0.67344666,1
1472,9.244507,-0.9562988000000001,0.67225647,1
1473,9.213379,-0.96946716,0.6770477,1
1474,9.215775,-0.9275665000000001,0.6926116999999999,1
1475,9.224152,-0.9335479999999999,0.6938019,1
1476,9.209793,-0.90242004,0.6782379,1
1477,9.242111,-0.9503021,0.64112854,1
1478,9.200211,-0.9431305,0.67944336,1
1479,9.195419000000001,-0.9335479999999999,0.6542969,1
1480,9.261261,-0.9431305,0.65071106,1
1481,9.243300999999999,-0.917984,0.66267395,1
1482,9.225342,-0.9371338,0.70098877,1
1483,9.210983,-0.95150757,0.6758423000000001,1
1484,9.207397,-0.97065735,0.68063354,1
1485,9.228943,-0.9479065000000001,0.6650696,1
1486,9.220566,-0.9550934000000001,0.61839294,1
1487,9.236130000000001,-0.9658661000000001,0.6363373000000001,1
1488,9.21936,-0.93115234,0.6100005999999999,1
1489,9.225342,-0.9562988000000001,0.6351471,1
1490,9.250488,-0.95988464,0.63993835,1
1491,9.213379,-0.9503021,0.6243744000000001,1
1492,9.188232000000001,-0.9467163000000001,0.5956421,1
1493,9.222961,-0.94911194,0.5740967,1
1494,9.257675,-0.9754485999999999,0.5633239999999999,1
1495,9.212173,-0.9550934000000001,0.56451416,1
1496,9.210983,-0.9550934000000001,0.61479187,1
1497,9.248092999999999,-0.9826355,0.63035583,1
1498,9.275619500000001,-0.9945984,0.54296875,1
1499,9.203796,-0.93473816,0.5489501999999999,1
1500,9.233734,-0.9838256999999999,0.54776,1
1501,9.215775,-0.96347046,0.57528687,1
1502,9.212173,-0.9287566999999999,0.58128357,1
1503,9.203796,-0.94192505,0.55255127,1
1504,9.23732,-0.9503021,0.59085083,1
1505,9.257675,-0.9874115,0.5369873000000001,1
1506,9.240905999999999,-0.95269775,0.5226135000000001,1
1507,9.230133,-0.9682617,0.5298004,1
1508,9.221756,-0.9335479999999999,0.53219604,1
1509,9.210983,-0.9359436,0.53938293,1
1510,9.209793,-0.95150757,0.58366394,1
1511,9.244507,-0.9539032,0.5669098000000001,1
1512,9.228943,-0.96946716,0.5226135000000001,1
1513,9.243300999999999,-0.9586792,0.5274048000000001,1
1514,9.220566,-0.9479065000000001,0.5549469,1
1515,9.221756,-0.9610748,0.46395874,1
1516,9.206192,-0.9646759,0.53338623,1
1517,9.209793,-0.9586792,0.48670959999999996,1
1518,9.21936,-0.9874115,0.5441741999999999,1
1519,9.21936,-0.9562988000000001,0.5058594,1
1520,9.23851,-0.9910126,0.48789978,1
1521,9.251678,-0.9550934000000001,0.48789978,1
1522,9.246902,-0.9479065000000001,0.48191833,1
1523,9.239716,-0.96707153,0.5178375,1
1524,9.249298,-0.9443207,0.5298004,1
1525,9.210983,-0.94551086,0.5669098000000001,1
1526,9.181061,-0.89404297,0.60762024,1
1527,9.206192,-0.88446045,0.5800781,1
1528,9.208588,-0.9036255,0.5800781,1
1529,9.209793,-0.9048156999999999,0.62316895,1
1530,9.23851,-0.9191742,0.6064148,1
1531,9.288788,-0.9263610999999999,0.58247375,1
1532,9.25528,-0.9586792,0.5513458000000001,1
1533,9.207397,-0.9898070999999999,0.6100005999999999,1
1534,9.228943,-0.9730530000000001,0.5860595999999999,1
1535,9.249298,-1.0161438,0.5369873000000001,1
1536,9.242111,-0.996994,0.51304626,1
1537,9.2313385,-0.9957886,0.5286102,1
1538,9.222961,-1.0197449,0.5740967,1
1539,9.227737,-0.9682617,0.5860595999999999,1
1540,9.220566,-0.9431305,0.61239624,1
1541,9.209793,-0.93115234,0.6100005999999999,1
1542,9.236130000000001,-0.93115234,0.60162354,1
1543,9.203796,-0.95150757,0.58247375,1
1544,9.215775,-0.9586792,0.60762024,1
1545,9.201400999999999,-0.9107970999999999,0.6171875,1
1546,9.250488,-0.9323425,0.6207885999999999,1
1547,9.234924000000001,-0.93473816,0.65071106,1
1548,9.2313385,-0.96347046,0.6495055999999999,1
1549,9.214569000000001,-0.9766388,0.6279602,1
1550,9.201400999999999,-0.96707153,0.58966064,1
1551,9.215775,-0.9479065000000001,0.56211853,1
1552,9.194229,-0.9287566999999999,0.6136017,1
1553,9.224152,-0.9263610999999999,0.61479187,1
1554,9.233734,-0.9586792,0.58247375,1
1555,9.201400999999999,-0.93473816,0.60401917,1
1556,9.227737,-0.9287566999999999,0.602829,1
1557,9.227737,-0.9479065000000001,0.6136017,1
1558,9.220566,-0.9107970999999999,0.58966064,1
1559,9.207397,-0.9155884,0.61839294,1
1560,9.215775,-0.92037964,0.62197876,1
1561,9.209793,-0.9215698,0.6459198,1
1562,9.206192,-0.9503021,0.60401917,1
1563,9.216965,-0.9479065000000001,0.62316895,1
1564,9.221756,-0.9323425,0.6267699999999999,1
1565,9.251678,-0.94911194,0.62316895,1
1566,9.214569000000001,-0.9275665000000001,0.6363373000000001,1
1567,9.213379,-0.9550934000000001,0.6447295999999999,1
1568,9.210983,-0.94551086,0.6088104,1
1569,9.243300999999999,-0.9826355,0.59324646,1
1570,9.233734,-1.0101624,0.6207885999999999,1
1571,9.207397,-0.9574889999999999,0.61839294,1
1572,9.221756,-0.9862213,0.6638794,1
1573,9.284011999999999,-0.9431305,0.6375427,1
1574,9.250488,-0.9574889999999999,0.6387329,1
1575,9.205002,-0.9443207,0.6159973000000001,1
1576,9.182250999999999,-0.9215698,0.66148376,1
1577,9.209793,-0.9060210999999999,0.6447295999999999,1
1578,9.2313385,-0.9084015,0.65071106,1
1579,9.205002,-0.94192505,0.6638794,1
1580,9.221756,-0.95269775,0.6710663,1
1581,9.252884,-0.97184753,0.666275,1
1582,9.234924000000001,-0.9467163000000001,0.6602783,1
1583,9.222961,-0.94073486,0.66267395,1
1584,9.209793,-0.9371338,0.6555023,1
1585,9.189438,-0.9443207,0.63993835,1
1586,9.251678,-0.9898070999999999,0.6950073,1
1587,9.236130000000001,-0.9539032,0.63035583,1
1588,9.234924000000001,-0.97184753,0.6279602,1
1589,9.224152,-0.93833923,0.6495055999999999,1
1590,9.200211,-0.92037964,0.6602783,1
1591,9.215775,-0.9359436,0.6890106,1
1592,9.216965,-0.92996216,0.6674651999999999,1
1593,9.230133,-0.94911194,0.67944336,1
1594,9.225342,-0.9610748,0.6746521,1
1595,9.17746,-0.9275665000000001,0.666275,1
1596,9.210983,-0.9610748,0.6555023,1
1597,9.23732,-0.95269775,0.6387329,1
1598,9.215775,-0.96707153,0.62197876,1
1599,9.207397,-0.99220276,0.6638794,1
1600,9.205002,-0.9610748,0.6447295999999999,1
1601,9.215775,-0.97065735,0.64352417,1
1602,9.236130000000001,-0.97784424,0.64112854,1
1603,9.25528,-0.97784424,0.6363373000000001,1
1604,9.210983,-0.92037964,0.686615,1
1605,9.212173,-0.9586792,0.6542969,1
1606,9.226547,-0.9443207,0.65789795,1
1607,9.23851,-0.9287566999999999,0.66148376,1
1608,9.244507,-0.9323425,0.6782379,1
1609,9.239716,-0.9790344000000001,0.6447295999999999,1
1610,9.172684,-0.93833923,0.6638794,1
1611,9.193024000000001,-0.9287566999999999,0.62316895,1
1612,9.266052,-0.9730530000000001,0.63993835,1
1613,9.221756,-0.9658661000000001,0.61239624,1
1614,9.207397,-0.9539032,0.6207885999999999,1
1615,9.207397,-0.9467163000000001,0.70578,1
1616,9.203796,-0.9143982,0.75245667,1
1617,9.222961,-0.9060210999999999,0.6997833000000001,1
1618,9.181061,-0.9359436,0.69740295,1
1619,9.213379,-0.98501587,0.6770477,1
1620,9.203796,-0.9658661000000001,0.67944336,1
1621,9.236130000000001,-1.0017853,0.6710663,1
1622,9.227737,-0.95988464,0.6710663,1
1623,9.228943,-0.94073486,0.6459198,1
1624,9.215775,-0.97065735,0.67344666,1
1625,9.23732,-0.9766388,0.6938019,1
1626,9.213379,-1.0005798000000001,0.70578,1
1627,9.215775,-0.9898070999999999,0.61120605,1
1628,9.23732,-0.9586792,0.6566925,1
1629,9.214569000000001,-0.96347046,0.6315613,1
1630,9.21936,-0.9371338,0.62916565,1
1631,9.200211,-0.94192505,0.61120605,1
1632,9.232529,-0.9790344000000001,0.5884552,1
1633,9.240905999999999,-0.9945984,0.61239624,1
1634,9.221756,-1.012558,0.62316895,1
1635,9.246902,-0.9766388,0.60401917,1
1636,9.221756,-0.97424316,0.58247375,1
1637,9.213379,-0.97065735,0.642334,1
1638,9.21936,-0.9335479999999999,0.58366394,1
1639,9.194229,-0.95150757,0.6159973000000001,1
1640,9.214569000000001,-0.9215698,0.57528687,1
1641,9.196625,-0.9826355,0.57528687,1
1642,9.234924000000001,-0.96946716,0.6243744000000001,1
1643,9.228943,-0.97184753,0.58128357,1
1644,9.228943,-0.92996216,0.57888794,1
1645,9.227737,-0.95988464,0.5860595999999999,1
1646,9.214569000000001,-0.94192505,0.5585326999999999,1
1647,9.246902,-0.96946716,0.5776825,1
1648,9.207397,-0.9754485999999999,0.61239624,1
1649,9.201400999999999,-0.9431305,0.5956421,1
1650,9.267242,-0.9910126,0.65789795,1
1651,9.257675,-0.97184753,0.60401917,1
1652,9.2313385,-0.9479065000000001,0.6363373000000001,1
1653,9.232529,-0.9754485999999999,0.63035583,1
1654,9.200211,-0.9562988000000001,0.6638794,1
1655,9.201400999999999,-0.92996216,0.6926116999999999,1
1656,9.194229,-0.9167938,0.70217896,1
1657,9.21936,-0.9730530000000001,0.69859314,1
1658,9.191833500000001,-0.95150757,0.6818390000000001,1
1659,9.191833500000001,-0.98143005,0.63275146,1
1660,9.2313385,-0.98501587,0.6854248000000001,1
1661,9.243300999999999,-0.97184753,0.6471100000000001,1
1662,9.234924000000001,-0.94911194,0.686615,1
1663,9.208588,-0.97784424,0.6926116999999999,1
1664,9.222961,-0.96347046,0.7117614999999999,1
1665,9.206192,-0.95988464,0.6938019,1
1666,9.182250999999999,-0.94192505,0.6854248000000001,1
1667,9.21936,-0.917984,0.72372437,1
1668,9.216965,-0.9371338,0.7033844,1
1669,9.2313385,-0.9359436,0.72372437,1
1670,9.228943,-0.9479065000000001,0.70817566,1
1671,9.218169999999999,-0.9371338,0.72372437,1
1672,9.213379,-0.9467163000000001,0.6926116999999999,1
1673,9.216965,-0.9467163000000001,0.7033844,1
1674,9.23851,-0.95269775,0.70217896,1
1675,9.220566,-0.9622803,0.69021606,1
1676,9.23732,-0.9539032,0.71655273,1
1677,9.203796,-0.9539032,0.69740295,1
1678,9.232529,-0.95150757,0.72372437,1
1679,9.227737,-0.9562988000000001,0.7045746,1
1680,9.239716,-0.9359436,0.7321167,1
1681,9.226547,-0.9323425,0.7404938,1
1682,9.212173,-0.96946716,0.75245667,1
1683,9.209793,-0.9539032,0.6997833000000001,1
1684,9.224152,-0.93833923,0.7333069000000001,1
1685,9.2313385,-0.9191742,0.7428894,1
1686,9.258865,-0.93115234,0.72732544,1
1687,9.23851,-0.9754485999999999,0.70578,1
1688,9.185837,-0.9431305,0.75964355,1
1689,9.210983,-0.9682617,0.760849,1
1690,9.242111,-0.9503021,0.760849,1
1691,9.257675,-0.9838256999999999,0.6854248000000001,1
1692,9.218169999999999,-0.97784424,0.6555023,1
1693,9.214569000000001,-0.9610748,0.74168396,1
1694,9.203796,-0.9143982,0.7728119000000001,1
1695,9.201400999999999,-0.90960693,0.8159026999999999,1
1696,9.173874,-0.9371338,0.78118896,1
1697,9.214569000000001,-0.9251709000000001,0.80033875,1
1698,9.208588,-0.9503021,0.75964355,1
1699,9.242111,-0.94551086,0.75006104,1
1700,9.2313385,-0.9395294,0.77879333,1
1701,9.214569000000001,-0.9479065000000001,0.7357024999999999,1
1702,9.195419000000001,-0.97784424,0.7692260999999999,1
1703,9.193024000000001,-0.9539032,0.80033875,1
1704,9.218169999999999,-0.9574889999999999,0.83625793,1
1705,9.233734,-0.96347046,0.80992126,1
1706,9.232529,-0.94911194,0.79556274,1
1707,9.199005,-0.9395294,0.79196167,1
1708,9.190628,-0.96347046,0.8326720999999999,1
1709,9.195419000000001,-0.90960693,0.82907104,1
1710,9.178664999999999,-0.9622803,0.7859802,1
1711,9.215775,-0.9610748,0.7907715,1
1712,9.207397,-0.95988464,0.7799988,1
1713,9.258865,-0.9838256999999999,0.79914856,1
1714,9.233734,-0.97424316,0.7931670999999999,1
1715,9.203796,-0.9730530000000001,0.7931670999999999,1
1716,9.213379,-0.9682617,0.78956604,1
1717,9.224152,-0.9395294,0.77041626,1
1718,9.179855,-0.95269775,0.8147125,1
1719,9.207397,-0.9503021,0.80752563,1
1720,9.228943,-0.9371338,0.7967529000000001,1
1721,9.234924000000001,-0.98143005,0.83506775,1
1722,9.209793,-0.9658661000000001,0.7967529000000001,1
1723,9.207397,-0.96707153,0.8027344,1
1724,9.152328500000001,-0.9503021,0.7943573,1
1725,9.230133,-0.9646759,0.78956604,1
1726,9.228943,-0.9957886,0.80633545,1
1727,9.173874,-0.9682617,0.80992126,1
1728,9.160706,-0.9826355,0.80992126,1
1729,9.252884,-0.9934082000000001,0.82429504,1
1730,9.233734,-1.0005798000000001,0.7644348000000001,1
1731,9.178664999999999,-0.97784424,0.75845337,1
1732,9.196625,-0.9610748,0.79914856,1
1733,9.188232000000001,-0.9467163000000001,0.83506775,1
1734,9.210983,-0.9503021,0.8338623,1
1735,9.199005,-0.9371338,0.8195038,1
1736,9.183456,-0.9467163000000001,0.8410492,1
1737,9.215775,-0.9215698,0.8254851999999999,1
1738,9.206192,-0.95269775,0.7967529000000001,1
1739,9.207397,-0.9503021,0.7728119000000001,1
1740,9.225342,-0.94073486,0.79556274,1
1741,9.184647,-0.9467163000000001,0.78479004,1
1742,9.170288000000001,-0.9395294,0.83506775,1
1743,9.228943,-0.97184753,0.8314666999999999,1
1744,9.202606,-0.9658661000000001,0.8027344,1
1745,9.184647,-0.95150757,0.8195038,1
1746,9.195419000000001,-0.98861694,0.75964355,1
1747,9.213379,-0.9766388,0.72732544,1
1748,9.230133,-0.9215698,0.7033844,1
1749,9.244507,-0.9431305,0.6938019,1
1750,9.222961,-0.97424316,0.7069701999999999,1
1751,9.248092999999999,-1.0221252,0.6159973000000001,1
1752,9.225342,-0.99220276,0.6650696,1
1753,9.246902,-0.98143005,0.6638794,1
1754,9.23851,-0.9754485999999999,0.6279602,1
1755,9.221756,-0.98501587,0.66867065,1
1756,9.21936,-0.96347046,0.65789795,1
1757,9.227737,-0.9862213,0.6375427,1
1758,9.234924000000001,-0.9838256999999999,0.6207885999999999,1
1759,9.218169999999999,-1.0065765,0.6243744000000001,1
1760,9.196625,-0.9622803,0.6483154000000001,1
1761,9.233734,-0.9443207,0.6459198,1
1762,9.202606,-0.9610748,0.6674651999999999,1
1763,9.201400999999999,-0.9622803,0.63035583,1
1764,9.25647,-0.9646759,0.66986084,1
1765,9.25528,-0.9323425,0.61120605,1
1766,9.201400999999999,-0.9539032,0.60043335,1
1767,9.196625,-0.9574889999999999,0.6100005999999999,1
1768,9.246902,-0.9957886,0.60162354,1
1769,9.281616,-0.99938965,0.53938293,1
1770,9.227737,-0.9622803,0.48910522,1
1771,9.230133,-0.9826355,0.53219604,1
1772,9.216965,-0.9910126,0.55374146,1
1773,9.2313385,-0.9263610999999999,0.5848694000000001,1
1774,9.188232000000001,-0.9359436,0.5597229,1
1775,9.216965,-0.9730530000000001,0.58247375,1
1776,9.244507,-0.97065735,0.5669098000000001,1
1777,9.224152,-0.94192505,0.5693054,1
1778,9.2313385,-0.9215698,0.56451416,1
1779,9.212173,-0.9479065000000001,0.58128357,1
1780,9.239716,-0.9479065000000001,0.60162354,1
1781,9.233734,-0.9610748,0.60762024,1
1782,9.220566,-0.9503021,0.6638794,1
1783,9.21936,-0.94192505,0.61239624,1
1784,9.212173,-0.94192505,0.61958313,1
1785,9.206192,-0.9610748,0.62197876,1
1786,9.227737,-0.9682617,0.6638794,1
1787,9.225342,-0.92277527,0.67344666,1
1788,9.224152,-0.93833923,0.71295166,1
1789,9.230133,-0.95269775,0.6100005999999999,1
1790,9.221756,-0.96707153,0.602829,1
1791,9.212173,-0.98861694,0.6171875,1
1792,9.240905999999999,-0.96707153,0.61958313,1
1793,9.248092999999999,-0.9934082000000001,0.5968323,1
1794,9.215775,-0.9682617,0.63394165,1
1795,9.220566,-0.97184753,0.65071106,1
1796,9.216965,-0.9610748,0.6650696,1
1797,9.224152,-0.9610748,0.63993835,1
1798,9.224152,-0.9431305,0.67225647,1
1799,9.209793,-0.9395294,0.6638794,1
1800,9.205002,-0.92396545,0.69021606,1
1801,9.194229,-0.8976288,0.72732544,1
1802,9.234924000000001,-0.93473816,0.72372437,1
1803,9.199005,-0.88446045,0.7033844,1
1804,9.184647,-0.90960693,0.70578,1
1805,9.245697,-0.9586792,0.6782379,1
1806,9.249298,-0.9622803,0.6650696,1
1807,9.212173,-0.9610748,0.62197876,1
1808,9.225342,-0.9479065000000001,0.6542969,1
1809,9.220566,-0.9467163000000001,0.68063354,1
1810,9.221756,-0.94192505,0.71655273,1
1811,9.234924000000001,-0.9191742,0.6926116999999999,1
1812,9.195419000000001,-0.92396545,0.65190125,1
1813,9.21936,-0.98023987,0.6710663,1
1814,9.227737,-0.95269775,0.6483154000000001,1
1815,9.2313385,-0.95269775,0.6531066999999999,1
1816,9.233734,-0.94551086,0.66267395,1
1817,9.209793,-0.9431305,0.6830291999999999,1
1818,9.208588,-0.9395294,0.7321167,1
1819,9.221756,-0.97184753,0.72372437,1
1820,9.227737,-0.98023987,0.6447295999999999,1
1821,9.221756,-0.94073486,0.7141571,1
1822,9.226547,-0.9562988000000001,0.65908813,1
1823,9.240905999999999,-0.9371338,0.68063354,1
1824,9.221756,-0.92277527,0.71655273,1
1825,9.182250999999999,-0.94192505,0.72013855,1
1826,9.218169999999999,-0.9539032,0.7536621,1
1827,9.216965,-0.96347046,0.73091125,1
1828,9.208588,-0.9467163000000001,0.7285156,1
1829,9.213379,-0.9503021,0.7716217,1
1830,9.208588,-0.9335479999999999,0.7225342,1
1831,9.246902,-0.9371338,0.7345123,1
1832,9.242111,-0.9287566999999999,0.70098877,1
1833,9.210983,-0.9622803,0.7033844,1
1834,9.232529,-0.9622803,0.70098877,1
1835,9.234924000000001,-0.9443207,0.70217896,1
1836,9.222961,-0.9443207,0.6830291999999999,1
1837,9.201400999999999,-0.9550934000000001,0.69140625,1
1838,9.21936,-0.98023987,0.68063354,1
1839,9.225342,-0.9658661000000001,0.67344666,1
1840,9.201400999999999,-0.9359436,0.7548523,1
1841,9.194229,-0.8820648000000001,0.7464751999999999,1
1842,9.250488,-0.9550934000000001,0.7249298000000001,1
1843,9.184647,-0.97184753,0.7404938,1
1844,9.193024000000001,-0.95269775,0.79196167,1
1845,9.209793,-0.94551086,0.75006104,1
1846,9.252884,-0.9467163000000001,0.6938019,1
1847,9.221756,-0.95269775,0.70578,1
1848,9.169083,-0.9503021,0.7153473000000001,1
1849,9.181061,-0.96347046,0.7368927,1
1850,9.213379,-0.93115234,0.78118896,1
1851,9.197815,-0.9335479999999999,0.7357024999999999,1
1852,9.194229,-0.9431305,0.75605774,1
1853,9.215775,-0.96347046,0.6926116999999999,1
1854,9.207397,-0.97065735,0.7153473000000001,1
1855,9.225342,-0.95150757,0.73809814,1
1856,9.21936,-0.9431305,0.76802063,1
1857,9.21936,-0.9658661000000001,0.7225342,1
1858,9.183456,-0.9107970999999999,0.760849,1
1859,9.246902,-0.9574889999999999,0.7536621,1
1860,9.206192,-0.94551086,0.7440796,1
1861,9.194229,-0.9539032,0.72612,1
1862,9.194229,-0.93833923,0.7716217,1
1863,9.215775,-0.9562988000000001,0.73809814,1
1864,9.230133,-0.94192505,0.760849,1
1865,9.228943,-0.9275665000000001,0.74887085,1
1866,9.195419000000001,-0.9479065000000001,0.77879333,1
1867,9.234924000000001,-0.9562988000000001,0.7943573,1
1868,9.216965,-0.9479065000000001,0.73091125,1
1869,9.208588,-0.9395294,0.7249298000000001,1
1870,9.243300999999999,-0.97424316,0.7117614999999999,1
1871,9.227737,-0.9562988000000001,0.72732544,1
1872,9.228943,-0.917984,0.7321167,1
1873,9.226547,-0.97784424,0.74528503,1
1874,9.228943,-0.9550934000000001,0.75845337,1
1875,9.23732,-0.9682617,0.75605774,1
1876,9.213379,-0.94192505,0.760849,1
1877,9.212173,-0.9622803,0.7967529000000001,1
1878,9.21936,-0.96946716,0.7799988,1
1879,9.205002,-0.96707153,0.75845337,1
1880,9.201400999999999,-0.9335479999999999,0.7716217,1
1881,9.21936,-0.8856659,0.7536621,1
1882,9.213379,-0.92277527,0.7728119000000001,1
1883,9.240905999999999,-0.9646759,0.7440796,1
1884,9.200211,-0.9646759,0.73091125,1
1885,9.181061,-0.9431305,0.7357024999999999,1
1886,9.215775,-0.9910126,0.75605774,1
1887,9.252884,-0.99220276,0.7333069000000001,1
1888,9.209793,-0.9335479999999999,0.6842345999999999,1
1889,9.178664999999999,-0.94192505,0.7321167,1
1890,9.208588,-0.90122986,0.7536621,1
1891,9.215775,-0.9275665000000001,0.7428894,1
1892,9.188232000000001,-0.92037964,0.7572479,1
1893,9.201400999999999,-0.9251709000000001,0.7333069000000001,1
1894,9.216965,-0.96946716,0.7117614999999999,1
1895,9.221756,-0.96707153,0.67344666,1
1896,9.208588,-0.9467163000000001,0.68782043,1
1897,9.215775,-0.9467163000000001,0.6602783,1
1898,9.239716,-0.95150757,0.6746521,1
1899,9.2313385,-0.9754485999999999,0.6997833000000001,1
1900,9.246902,-0.9586792,0.7285156,1
1901,9.197815,-0.97184753,0.65789795,1
1902,9.205002,-0.95988464,0.6638794,1
1903,9.216965,-0.9754485999999999,0.69021606,1
1904,9.220566,-0.9610748,0.6279602,1
1905,9.225342,-0.9479065000000001,0.63275146,1
1906,9.184647,-0.92396545,0.66986084,1
1907,9.208588,-0.9431305,0.6854248000000001,1
1908,9.210983,-0.9754485999999999,0.66148376,1
1909,9.236130000000001,-0.9682617,0.6531066999999999,1
1910,9.218169999999999,-0.93115234,0.61239624,1
1911,9.2313385,-0.9479065000000001,0.65908813,1
1912,9.221756,-0.9479065000000001,0.61958313,1
1913,9.207397,-0.9766388,0.602829,1
1914,9.197815,-0.96347046,0.60043335,1
1915,9.181061,-0.9562988000000001,0.6207885999999999,1
1916,9.222961,-0.9766388,0.6351471,1
1917,9.254074000000001,-0.9838256999999999,0.64112854,1
1918,9.225342,-0.9682617,0.6387329,1
1919,9.220566,-0.9263610999999999,0.6650696,1
1920,9.213379,-0.9215698,0.666275,1
1921,9.226547,-0.95269775,0.6531066999999999,1
1922,9.190628,-0.917984,0.6770477,1
1923,9.159514999999999,-0.9155884,0.6459198,1
1924,9.252884,-0.9443207,0.70936584,1
1925,9.269638,-0.9790344000000001,0.6758423000000001,1
1926,9.2313385,-0.9874115,0.65908813,1
1927,9.207397,-0.95988464,0.6459198,1
1928,9.193024000000001,-0.97184753,0.70098877,1
1929,9.221756,-0.9275665000000001,0.72732544,1
1930,9.181061,-0.91319275,0.69859314,1
1931,9.218169999999999,-0.9263610999999999,0.7285156,1
1932,9.214569000000001,-0.9359436,0.6890106,1
1933,9.220566,-0.9562988000000001,0.7033844,1
1934,9.203796,-0.9263610999999999,0.67344666,1
1935,9.228943,-0.9000244000000001,0.70098877,1
1936,9.205002,-0.8976288,0.69859314,1
1937,9.200211,-0.9443207,0.7249298000000001,1
1938,9.236130000000001,-0.92996216,0.7141571,1
1939,9.234924000000001,-0.9550934000000001,0.68782043,1
1940,9.207397,-0.94073486,0.70817566,1
1941,9.216965,-0.93115234,0.73091125,1
1942,9.209793,-0.9275665000000001,0.72612,1
1943,9.242111,-0.93473816,0.7153473000000001,1
1944,9.225342,-0.94911194,0.73809814,1
1945,9.221756,-0.9610748,0.721344,1
1946,9.216965,-0.95269775,0.72013855,1
1947,9.239716,-0.94551086,0.72372437,1
1948,9.187042,-0.9395294,0.72732544,1
1949,9.214569000000001,-0.9335479999999999,0.7153473000000001,1
1950,9.213379,-0.92277527,0.73928833,1
1951,9.205002,-0.917984,0.75605774,1
1952,9.197815,-0.9215698,0.73928833,1
1953,9.207397,-0.9072113000000002,0.69140625,1
1954,9.213379,-0.92396545,0.6961975,1
1955,9.240905999999999,-0.96347046,0.72972107,1
1956,9.215775,-0.9479065000000001,0.7692260999999999,1
1957,9.184647,-0.94192505,0.72372437,1
1958,9.244507,-0.9646759,0.77401733,1
1959,9.212173,-0.91200256,0.71055603,1
1960,9.243300999999999,-0.9622803,0.70817566,1
1961,9.185837,-0.94551086,0.7548523,1
1962,9.218169999999999,-0.9359436,0.7799988,1
1963,9.272034,-0.93115234,0.7368927,1
1964,9.215775,-0.94192505,0.70817566,1
1965,9.205002,-0.9610748,0.7033844,1
1966,9.175064,-0.94911194,0.7835846,1
1967,9.187042,-0.90960693,0.7859802,1
1968,9.214569000000001,-0.9167938,0.7728119000000001,1
1969,9.215775,-0.9084015,0.7428894,1
1970,9.212173,-0.9562988000000001,0.71894836,1
1971,9.220566,-0.9790344000000001,0.77401733,1
1972,9.222961,-0.92996216,0.73928833,1
1973,9.222961,-0.9550934000000001,0.7752074999999999,1
1974,9.234924000000001,-0.94192505,0.74168396,1
1975,9.196625,-0.92037964,0.765625,1
1976,9.2313385,-0.9658661000000001,0.7763977,1
1977,9.224152,-0.9335479999999999,0.7728119000000001,1
1978,9.197815,-0.9251709000000001,0.7644348000000001,1
1979,9.207397,-0.9539032,0.7428894,1
1980,9.212173,-0.94551086,0.79196167,1
1981,9.220566,-0.9467163000000001,0.8135071,1
1982,9.221756,-0.9479065000000001,0.765625,1
1983,9.214569000000001,-0.94551086,0.7799988,1
1984,9.210983,-0.94192505,0.77041626,1
1985,9.213379,-0.94911194,0.75964355,1
1986,9.240905999999999,-0.97065735,0.75845337,1
1987,9.226547,-0.96347046,0.75845337,1
1988,9.203796,-0.9562988000000001,0.7716217,1
1989,9.230133,-0.9467163000000001,0.78956604,1
1990,9.184647,-0.93833923,0.7716217,1
1991,9.191833500000001,-0.94551086,0.76683044,1
1992,9.206192,-0.94192505,0.77041626,1
1993,9.206192,-0.9610748,0.78479004,1
1994,9.215775,-0.9479065000000001,0.7728119000000001,1
1995,9.25528,-0.9790344000000001,0.7943573,1
1996,9.188232000000001,-0.9359436,0.79556274,1
1997,9.183456,-0.9155884,0.76683044,1
1998,9.216965,-0.9431305,0.78718567,1
1999,9.242111,-0.9586792,0.7404938,1
2000,9.201400999999999,-0.9503021,0.7644348000000001,1
2001,9.181061,-0.9586792,0.8326720999999999,1
2002,9.25647,-0.97784424,0.8314666999999999,1
2003,9.215775,-0.9574889999999999,0.71295166,1
2004,9.208588,-0.94192505,0.75006104,1
2005,9.205002,-0.9622803,0.80633545,1
2006,9.195419000000001,-0.93115234,0.8266754000000001,1
2007,9.225342,-0.92396545,0.7644348000000001,1
2008,9.193024000000001,-0.9263610999999999,0.78479004,1
2009,9.197815,-0.9323425,0.7979584,1
2010,9.218169999999999,-0.9503021,0.77401733,1
2011,9.200211,-0.9275665000000001,0.765625,1
2012,9.228943,-0.9395294,0.75845337,1
2013,9.21936,-0.9251709000000001,0.74528503,1
2014,9.207397,-0.9275665000000001,0.7763977,1
2015,9.206192,-0.94073486,0.78479004,1
2016,9.221756,-0.94911194,0.80752563,1
2017,9.242111,-0.94911194,0.78479004,1
2018,9.233734,-0.94911194,0.7512665,1
2019,9.164291,-0.9610748,0.76683044,1
2020,9.215775,-0.96946716,0.73809814,1
2021,9.207397,-0.9359436,0.74768066,1
2022,9.220566,-0.94911194,0.73928833,1
2023,9.220566,-0.9335479999999999,0.6950073,1
2024,9.216965,-0.93833923,0.75006104,1
2025,9.210983,-0.9503021,0.7177429,1
2026,9.243300999999999,-0.97784424,0.70817566,1
2027,9.222961,-0.9945984,0.71655273,1
2028,9.246902,-0.9646759,0.70936584,1
2029,9.210983,-0.94911194,0.7045746,1
2030,9.214569000000001,-0.9826355,0.6961975,1
2031,9.209793,-0.9646759,0.7440796,1
2032,9.221756,-0.9730530000000001,0.7692260999999999,1
2033,9.215775,-0.96946716,0.7177429,1
2034,9.202606,-0.9562988000000001,0.68782043,1
2035,9.209793,-0.97784424,0.7225342,1
2036,9.189438,-0.9610748,0.72972107,1
2037,9.243300999999999,-0.9323425,0.6842345999999999,1
2038,9.224152,-0.95150757,0.65789795,1
2039,9.170288000000001,-0.9443207,0.70936584,1
2040,9.189438,-0.9682617,0.69140625,1
2041,9.264847,-0.99938965,0.69021606,1
2042,9.263657,-1.0005798000000001,0.6171875,1
2043,9.184647,-0.9586792,0.60401917,1
2044,9.161896,-0.93833923,0.6255646,1
2045,9.233734,-0.9443207,0.7045746,1
2046,9.202606,-0.9084015,0.6566925,1
2047,9.213379,-0.9275665000000001,0.65190125,1
2048,9.221756,-0.95988464,0.6770477,1
2049,9.23851,-0.9754485999999999,0.69859314,1
2050,9.222961,-0.9143982,0.6854248000000001,1
2051,9.216965,-0.9503021,0.6818390000000001,1
2052,9.230133,-0.94551086,0.6950073,1
2053,9.222961,-0.9251709000000001,0.7512665,1
2054,9.221756,-0.97424316,0.74887085,1
2055,9.233734,-0.9586792,0.7285156,1
2056,9.242111,-0.9646759,0.72972107,1
2057,9.179855,-0.9287566999999999,0.73809814,1
2058,9.225342,-0.9359436,0.77401733,1
2059,9.230133,-1.0005798000000001,0.7548523,1
2060,9.202606,-0.96347046,0.77041626,1
2061,9.193024000000001,-0.93833923,0.77041626,1
2062,9.214569000000001,-0.9610748,0.7572479,1
2063,9.232529,-0.93473816,0.74768066,1
2064,9.212173,-0.9550934000000001,0.75964355,1
2065,9.207397,-0.97065735,0.7428894,1
2066,9.232529,-0.93473816,0.74528503,1
2067,9.196625,-0.9359436,0.7033844,1
2068,9.200211,-0.9263610999999999,0.7141571,1
2069,9.210983,-0.92277527,0.7428894,1
2070,9.210983,-0.92277527,0.74168396,1
2071,9.242111,-0.9503021,0.75964355,1
2072,9.200211,-0.9586792,0.7548523,1
2073,9.190628,-0.93833923,0.7859802,1
2074,9.245697,-0.9622803,0.7716217,1
2075,9.261261,-0.95269775,0.75006104,1
2076,9.214569000000001,-0.9562988000000001,0.75605774,1
2077,9.164291,-0.94911194,0.7931670999999999,1
2078,9.25647,-0.9730530000000001,0.78118896,1
2079,9.25528,-1.0029755,0.75964355,1
2080,9.232529,-0.9658661000000001,0.7225342,1
2081,9.197815,-0.9610748,0.7428894,1
2082,9.184647,-0.94551086,0.8111267,1
2083,9.208588,-0.9539032,0.79556274,1
2084,9.187042,-0.9275665000000001,0.75245667,1
2085,9.203796,-0.917984,0.79914856,1
2086,9.213379,-0.9574889999999999,0.7943573,1
2087,9.233734,-0.9646759,0.78956604,1
2088,9.2313385,-0.9443207,0.77401733,1
2089,9.188232000000001,-0.93115234,0.80633545,1
2090,9.215775,-0.9646759,0.765625,1
2091,9.191833500000001,-0.95150757,0.82788086,1
2092,9.207397,-0.95269775,0.8123169,1
2093,9.21936,-0.9646759,0.79556274,1
2094,9.188232000000001,-0.9790344000000001,0.78479004,1
2095,9.189438,-0.94911194,0.8410492,1
2096,9.201400999999999,-0.9610748,0.80633545,1
2097,9.199005,-0.9323425,0.79196167,1
2098,9.210983,-0.9467163000000001,0.80633545,1
2099,9.221756,-0.9323425,0.8542175,1
2100,9.216965,-0.9562988000000001,0.72732544,1
2101,9.248092999999999,-0.9550934000000001,0.7728119000000001,1
2102,9.21936,-0.96946716,0.7692260999999999,1
2103,9.203796,-0.9646759,0.75605774,1
2104,9.230133,-0.95269775,0.77401733,1
2105,9.221756,-0.9371338,0.7823944,1
2106,9.230133,-0.9574889999999999,0.7752074999999999,1
2107,9.21936,-0.9646759,0.78479004,1
2108,9.216965,-0.9658661000000001,0.80513,1
2109,9.243300999999999,-0.9371338,0.8254851999999999,1
2110,9.222961,-0.93473816,0.8147125,1
2111,9.201400999999999,-0.9431305,0.8434448,1
2112,9.212173,-0.9467163000000001,0.8266754000000001,1
2113,9.242111,-0.95269775,0.8039398,1
2114,9.244507,-0.9467163000000001,0.8254851999999999,1
2115,9.190628,-0.96707153,0.83506775,1
2116,9.165497,-0.96707153,0.8554076999999999,1
2117,9.240905999999999,-0.996994,0.78837585,1
2118,9.232529,-0.98501587,0.76802063,1
2119,9.200211,-0.92396545,0.765625,1
2120,9.182250999999999,-0.9503021,0.79914856,1
2121,9.189438,-0.9730530000000001,0.8625946,1
2122,9.200211,-0.96347046,0.8218994000000001,1
2123,9.185837,-0.9443207,0.7979584,1
2124,9.205002,-0.9574889999999999,0.7859802,1
2125,9.227737,-0.97184753,0.8410492,1
2126,9.2313385,-0.9646759,0.8159026999999999,1
2127,9.207397,-0.94911194,0.81710815,1
2128,9.196625,-0.92277527,0.8314666999999999,1
2129,9.183456,-0.94192505,0.81710815,1
2130,9.233734,-0.9431305,0.85661316,1
2131,9.212173,-0.9359436,0.80033875,1
2132,9.183456,-0.95150757,0.7859802,1
2133,9.202606,-0.9682617,0.80513,1
2134,9.208588,-0.96946716,0.81829834,1
2135,9.220566,-0.9479065000000001,0.8230896000000001,1
2136,9.230133,-0.9898070999999999,0.8087310999999999,1
2137,9.207397,-0.9874115,0.8087310999999999,1
2138,9.207397,-0.93833923,0.8302765,1
2139,9.221756,-0.94192505,0.81710815,1
2140,9.201400999999999,-0.99220276,0.77401733,1
2141,9.208588,-0.97424316,0.77760315,1
2142,9.199005,-0.9562988000000001,0.7572479,1
2143,9.200211,-0.9574889999999999,0.73091125,1
2144,9.214569000000001,-0.94911194,0.8027344,1
2145,9.230133,-0.9323425,0.74887085,1
2146,9.251678,-0.97065735,0.7321167,1
2147,9.228943,-0.9586792,0.71055603,1
2148,9.191833500000001,-0.9275665000000001,0.73809814,1
2149,9.224152,-0.9658661000000001,0.7548523,1
2150,9.232529,-0.9610748,0.7859802,1
2151,9.209793,-0.9826355,0.7943573,1
2152,9.205002,-1.0065765,0.77401733,1
2153,9.200211,-0.9574889999999999,0.8039398,1
2154,9.195419000000001,-0.9562988000000001,0.79914856,1
2155,9.2313385,-0.94551086,0.76802063,1
2156,9.2313385,-0.9730530000000001,0.721344,1
2157,9.224152,-0.9658661000000001,0.6674651999999999,1
2158,9.185837,-0.96347046,0.72013855,1
2159,9.212173,-0.95988464,0.77401733,1
2160,9.197815,-0.9646759,0.75006104,1
2161,9.203796,-0.9191742,0.75006104,1
2162,9.210983,-0.9467163000000001,0.7345123,1
2163,9.218169999999999,-0.9610748,0.69740295,1
2164,9.224152,-0.94911194,0.70936584,1
2165,9.209793,-0.92277527,0.7225342,1
2166,9.239716,-0.9479065000000001,0.70817566,1
2167,9.234924000000001,-0.9874115,0.71295166,1
2168,9.209793,-0.98023987,0.75964355,1
2169,9.228943,-0.9431305,0.721344,1
2170,9.194229,-0.9550934000000001,0.6638794,1
2171,9.200211,-0.9263610999999999,0.67225647,1
2172,9.214569000000001,-0.9503021,0.68782043,1
2173,9.208588,-0.9431305,0.721344,1
2174,9.194229,-0.94911194,0.72013855,1
2175,9.221756,-0.9275665000000001,0.7045746,1
2176,9.214569000000001,-0.97065735,0.7333069000000001,1
2177,9.233734,-0.9646759,0.7368927,1
2178,9.230133,-0.917984,0.70817566,1
2179,9.209793,-0.9539032,0.77041626,1
2180,9.233734,-0.95269775,0.69740295,1
2181,9.209793,-0.97424316,0.7440796,1
2182,9.212173,-0.9574889999999999,0.7428894,1
2183,9.220566,-0.96707153,0.70578,1
2184,9.233734,-0.97184753,0.75006104,1
2185,9.222961,-0.9766388,0.6758423000000001,1
2186,9.197815,-0.96347046,0.73809814,1
2187,9.220566,-0.94911194,0.765625,1
2188,9.251678,-0.97784424,0.70098877,1
2189,9.203796,-0.96347046,0.72972107,1
2190,9.145142,-0.94911194,0.75605774,1
2191,9.251678,-0.9658661000000001,0.77401733,1
2192,9.25647,-0.9562988000000001,0.75964355,1
2193,9.232529,-0.95988464,0.6710663,1
2194,9.195419000000001,-0.95988464,0.71655273,1
2195,9.206192,-0.8964386000000001,0.7931670999999999,1
2196,9.172684,-0.8880615,0.8159026999999999,1
2197,9.189438,-0.8605193999999999,0.7979584,1
2198,9.200211,-0.9084015,0.80633545,1
2199,9.208588,-0.917984,0.7859802,1
2200,9.209793,-0.94192505,0.77760315,1
2201,9.228943,-0.9191742,0.77041626,1
2202,9.172684,-0.9263610999999999,0.75006104,1
2203,9.220566,-0.9479065000000001,0.77401733,1
2204,9.226547,-0.94551086,0.8087310999999999,1
2205,9.250488,-0.94911194,0.77879333,1
2206,9.197815,-0.9287566999999999,0.7823944,1
2207,9.201400999999999,-0.92996216,0.80033875,1
2208,9.195419000000001,-0.9395294,0.7931670999999999,1
2209,9.220566,-0.9898070999999999,0.7859802,1
2210,9.214569000000001,-0.9503021,0.8338623,1
2211,9.216965,-0.9503021,0.8314666999999999,1
2212,9.232529,-0.95988464,0.8218994000000001,1
2213,9.212173,-0.9287566999999999,0.7548523,1
2214,9.21936,-0.9622803,0.78718567,1
2215,9.209793,-0.9622803,0.7692260999999999,1
2216,9.252884,-0.9862213,0.7692260999999999,1
2217,9.232529,-0.9550934000000001,0.75245667,1
2218,9.230133,-1.0029755,0.8027344,1
2219,9.221756,-0.95988464,0.7716217,1
2220,9.207397,-0.9431305,0.76802063,1
2221,9.193024000000001,-0.9323425,0.8314666999999999,1
2222,9.216965,-0.98023987,0.8302765,1
2223,9.221756,-0.9503021,0.8302765,1
2224,9.17627,-0.9622803,0.8434448,1
2225,9.163101,-0.9467163000000001,0.8554076999999999,1
2226,9.228943,-0.92396545,0.7979584,1
2227,9.243300999999999,-0.9682617,0.80513,1
2228,9.166687,-0.93473816,0.8506316999999999,1
2229,9.181061,-0.9107970999999999,0.8554076999999999,1
2230,9.254074000000001,-0.9431305,0.8506316999999999,1
2231,9.242111,-0.93833923,0.7931670999999999,1
2232,9.164291,-0.95988464,0.80633545,1
2233,9.206192,-0.9658661000000001,0.83865356,1
2234,9.207397,-0.93473816,0.83984375,1
2235,9.202606,-0.9251709000000001,0.8135071,1
2236,9.226547,-0.90122986,0.8195038,1
2237,9.216965,-0.9503021,0.8087310999999999,1
2238,9.194229,-0.9574889999999999,0.79556274,1
2239,9.214569000000001,-0.95150757,0.8039398,1
2240,9.228943,-0.94192505,0.8015441999999999,1
2241,9.191833500000001,-0.9335479999999999,0.81710815,1
2242,9.216965,-0.9766388,0.8266754000000001,1
2243,9.207397,-0.98501587,0.8601989999999999,1
2244,9.23732,-0.96946716,0.8314666999999999,1
2245,9.184647,-0.9622803,0.82788086,1
2246,9.23732,-0.996994,0.8266754000000001,1
2247,9.210983,-0.95269775,0.8590088,1
2248,9.191833500000001,-0.9586792,0.8434448,1
2249,9.221756,-0.9730530000000001,0.85661316,1
2250,9.220566,-0.9550934000000001,0.83865356,1
2251,9.2313385,-0.9610748,0.8302765,1
2252,9.199005,-0.94551086,0.8374634,1
2253,9.196625,-0.93115234,0.81829834,1
2254,9.193024000000001,-0.9622803,0.82907104,1
2255,9.191833500000001,-0.9826355,0.83625793,1
2256,9.236130000000001,-0.97424316,0.8039398,1
2257,9.202606,-0.9359436,0.8338623,1
2258,9.208588,-0.94192505,0.8123169,1
2259,9.189438,-0.9431305,0.8601989999999999,1
2260,9.218169999999999,-0.9574889999999999,0.78718567,1
2261,9.202606,-0.94911194,0.8506316999999999,1
2262,9.239716,-0.97784424,0.8147125,1
2263,9.188232000000001,-0.9646759,0.82429504,1
2264,9.196625,-0.92996216,0.83506775,1
2265,9.209793,-0.95150757,0.8422394,1
2266,9.233734,-0.9838256999999999,0.8266754000000001,1
2267,9.185837,-0.9359436,0.8482360999999999,1
2268,9.164291,-0.9479065000000001,0.86380005,1
2269,9.252884,-0.95988464,0.8625946,1
2270,9.23851,-0.9646759,0.8266754000000001,1
2271,9.199005,-0.9143982,0.7931670999999999,1
2272,9.191833500000001,-0.9682617,0.79914856,1
2273,9.205002,-0.95269775,0.82429504,1
2274,9.202606,-0.92277527,0.8195038,1
2275,9.193024000000001,-0.9263610999999999,0.7835846,1
2276,9.203796,-0.9586792,0.7823944,1
2277,9.187042,-0.9898070999999999,0.78118896,1
2278,9.220566,-0.9874115,0.78956604,1
2279,9.225342,-0.97424316,0.7404938,1
2280,9.234924000000001,-0.93833923,0.7428894,1
2281,9.216965,-0.99938965,0.7285156,1
2282,9.205002,-0.9730530000000001,0.7799988,1
2283,9.225342,-0.97424316,0.7153473000000001,1
2284,9.2313385,-0.9826355,0.6961975,1
2285,9.207397,-0.9730530000000001,0.7177429,1
2286,9.233734,-0.9945984,0.69740295,1
2287,9.203796,-0.95988464,0.721344,1
2288,9.210983,-0.95269775,0.6710663,1
2289,9.248092999999999,-0.95988464,0.721344,1
2290,9.21936,-0.9443207,0.6890106,1
2291,9.224152,-0.97065735,0.6890106,1
2292,9.234924000000001,-0.9539032,0.6997833000000001,1
2293,9.226547,-0.9503021,0.6279602,1
2294,9.243300999999999,-0.96347046,0.6387329,1
2295,9.212173,-0.9550934000000001,0.64112854,1
2296,9.228943,-0.95150757,0.6483154000000001,1
2297,9.206192,-0.9898070999999999,0.6387329,1
2298,9.212173,-0.95988464,0.6363373000000001,1
2299,9.228943,-0.9730530000000001,0.6495055999999999,1
2300,9.207397,-0.94073486,0.6542969,1
2301,9.200211,-0.92996216,0.68782043,1
2302,9.203796,-0.96347046,0.6830291999999999,1
2303,9.227737,-0.95269775,0.6243744000000001,1
2304,9.207397,-0.9586792,0.56811523,1
2305,9.171478,-0.9586792,0.6159973000000001,1
2306,9.262466,-0.9658661000000001,0.63993835,1
2307,9.244507,-0.9754485999999999,0.6159973000000001,1
2308,9.188232000000001,-0.9790344000000001,0.5633239999999999,1
2309,9.199005,-0.97184753,0.5968323,1
2310,9.194229,-0.9539032,0.65071106,1
2311,9.220566,-0.93833923,0.6566925,1
2312,9.214569000000001,-0.9143982,0.6483154000000001,1
2313,9.227737,-0.9251709000000001,0.67344666,1
2314,9.2313385,-0.9503021,0.67944336,1
2315,9.222961,-0.9574889999999999,0.72612,1
2316,9.213379,-0.9275665000000001,0.69740295,1
2317,9.201400999999999,-0.9586792,0.69859314,1
2318,9.222961,-0.9622803,0.68782043,1
2319,9.197815,-0.9371338,0.69859314,1
2320,9.228943,-0.9682617,0.76802063,1
2321,9.220566,-0.9910126,0.7141571,1
2322,9.194229,-0.95269775,0.6997833000000001,1
2323,9.216965,-0.9682617,0.7249298000000001,1
2324,9.220566,-0.9610748,0.6961975,1
2325,9.224152,-0.96707153,0.72013855,1
2326,9.239716,-0.9562988000000001,0.721344,1
2327,9.227737,-0.9431305,0.71055603,1
2328,9.209793,-0.95269775,0.72972107,1
2329,9.205002,-0.95150757,0.7285156,1
2330,9.216965,-0.96707153,0.70578,1
2331,9.209793,-0.93473816,0.70098877,1
2332,9.201400999999999,-0.94192505,0.6961975,1
2333,9.203796,-0.9143982,0.7404938,1
2334,9.239716,-0.92996216,0.70217896,1
2335,9.216965,-0.93115234,0.6782379,1
2336,9.218169999999999,-0.9479065000000001,0.74168396,1
2337,9.216965,-0.9467163000000001,0.7357024999999999,1
2338,9.202606,-0.9945984,0.6842345999999999,1
2339,9.197815,-0.95150757,0.686615,1
2340,9.246902,-0.9395294,0.69859314,1
2341,9.258865,-0.9646759,0.6890106,1
2342,9.200211,-0.9539032,0.7321167,1
2343,9.206192,-0.98023987,0.7404938,1
2344,9.269638,-1.0017853,0.7536621,1
2345,9.221756,-0.9730530000000001,0.70217896,1
2346,9.193024000000001,-0.97065735,0.7153473000000001,1
2347,9.208588,-0.9395294,0.75006104,1
2348,9.201400999999999,-0.91319275,0.78837585,1
2349,9.21936,-0.9143982,0.7548523,1
2350,9.202606,-0.91319275,0.7572479,1
2351,9.183456,-0.96707153,0.7572479,1
2352,9.214569000000001,-0.9562988000000001,0.7225342,1
2353,9.222961,-0.9610748,0.72612,1
2354,9.191833500000001,-0.9479065000000001,0.71295166,1
2355,9.218169999999999,-0.9275665000000001,0.7440796,1
2356,9.203796,-0.9251709000000001,0.71055603,1
2357,9.227737,-0.95269775,0.7249298000000001,1
2358,9.233734,-0.92277527,0.73091125,1
2359,9.226547,-0.9658661000000001,0.73091125,1
2360,9.216965,-0.9622803,0.7536621,1
2361,9.220566,-0.95988464,0.75006104,1
2362,9.221756,-0.97065735,0.7249298000000001,1
2363,9.213379,-0.9682617,0.7572479,1
2364,9.239716,-0.97784424,0.765625,1
2365,9.205002,-0.94551086,0.7716217,1
2366,9.215775,-0.9467163000000001,0.77879333,1
2367,9.197815,-0.94911194,0.73928833,1
2368,9.212173,-0.9622803,0.7512665,1
2369,9.202606,-0.94073486,0.7177429,1
2370,9.233734,-0.9215698,0.7368927,1
2371,9.216965,-0.9371338,0.73091125,1
2372,9.216965,-0.9467163000000001,0.7357024999999999,1
2373,9.216965,-0.9550934000000001,0.72372437,1
2374,9.226547,-0.96347046,0.7763977,1
2375,9.220566,-0.9826355,0.7728119000000001,1
2376,9.199005,-0.95150757,0.77879333,1
2377,9.196625,-0.9574889999999999,0.7177429,1
2378,9.263657,-0.9503021,0.78479004,1
2379,9.213379,-0.9658661000000001,0.78118896,1
2380,9.188232000000001,-0.9550934000000001,0.7835846,1
2381,9.212173,-0.9730530000000001,0.8230896000000001,1
2382,9.269638,-0.96347046,0.8015441999999999,1
2383,9.206192,-0.97065735,0.69140625,1
2384,9.17627,-0.98143005,0.72013855,1
2385,9.194229,-0.93833923,0.8254851999999999,1
2386,9.201400999999999,-0.9562988000000001,0.80633545,1
2387,9.218169999999999,-0.93473816,0.760849,1
2388,9.203796,-0.9036255,0.765625,1
2389,9.191833500000001,-0.97184753,0.78479004,1
2390,9.17627,-0.9550934000000001,0.7536621,1
2391,9.208588,-0.95988464,0.7428894,1
2392,9.215775,-0.9574889999999999,0.76683044,1
2393,9.212173,-0.9287566999999999,0.72732544,1
2394,9.202606,-0.9730530000000001,0.7692260999999999,1
2395,9.216965,-0.9431305,0.81829834,1
2396,9.234924000000001,-0.98023987,0.72972107,1
2397,9.197815,-0.95988464,0.7404938,1
2398,9.183456,-0.94192505,0.7799988,1
2399,9.178664999999999,-0.9910126,0.78718567,1
2400,9.224152,-0.9646759,0.78837585,1
2401,9.251678,-0.9562988000000001,0.760849,1
2402,9.203796,-0.96946716,0.7763977,1
2403,9.233734,-0.9646759,0.8027344,1
2404,9.201400999999999,-0.9072113000000002,0.80033875,1
2405,9.230133,-0.9287566999999999,0.765625,1
2406,9.220566,-0.9586792,0.77760315,1
2407,9.228943,-0.9263610999999999,0.721344,1
2408,9.207397,-0.93833923,0.74528503,1
2409,9.202606,-0.9503021,0.7249298000000001,1
2410,9.244507,-0.98501587,0.69140625,1
2411,9.232529,-0.98501587,0.7512665,1
2412,9.227737,-0.9862213,0.70098877,1
2413,9.225342,-0.99220276,0.72013855,1
2414,9.178664999999999,-0.96946716,0.72732544,1
2415,9.220566,-0.9443207,0.6890106,1
2416,9.239716,-0.98023987,0.7321167,1
2417,9.191833500000001,-0.9586792,0.7548523,1
2418,9.184647,-0.9395294,0.72372437,1
2419,9.25528,-0.9766388,0.73928833,1
2420,9.243300999999999,-0.97784424,0.6531066999999999,1
2421,9.224152,-0.9658661000000001,0.6483154000000001,1
2422,9.210983,-0.9766388,0.72972107,1
2423,9.207397,-0.9479065000000001,0.7333069000000001,1
2424,9.202606,-0.9730530000000001,0.72972107,1
2425,9.185837,-0.97784424,0.6997833000000001,1
2426,9.2313385,-1.028122,0.68782043,1
2427,9.227737,-0.96347046,0.68782043,1
2428,9.21936,-0.96946716,0.62916565,1
2429,9.216965,-0.9467163000000001,0.6650696,1
2430,9.189438,-0.95150757,0.65190125,1
2431,9.207397,-0.9646759,0.69859314,1
2432,9.227737,-0.9503021,0.70936584,1
2433,9.222961,-0.94911194,0.6710663,1
2434,9.199005,-0.9610748,0.6674651999999999,1
2435,9.213379,-0.97424316,0.642334,1
2436,9.214569000000001,-0.9766388,0.66986084,1
2437,9.209793,-0.96347046,0.6758423000000001,1
2438,9.206192,-0.9574889999999999,0.65908813,1
2439,9.21936,-0.95150757,0.6375427,1
2440,9.234924000000001,-1.0197449,0.68063354,1
2441,9.242111,-0.95988464,0.60162354,1
2442,9.25528,-0.95988464,0.7033844,1
2443,9.221756,-0.95988464,0.65789795,1
2444,9.207397,-0.95988464,0.70098877,1
2445,9.188232000000001,-0.9539032,0.6483154000000001,1
2446,9.203796,-0.9574889999999999,0.6997833000000001,1
2447,9.213379,-0.9610748,0.72612,1
2448,9.222961,-0.96946716,0.7117614999999999,1
2449,9.220566,-0.98023987,0.70217896,1
2450,9.243300999999999,-0.9826355,0.7285156,1
2451,9.257675,-0.98861694,0.7620392,1
2452,9.202606,-1.0005798000000001,0.74887085,1
2453,9.185837,-0.9934082000000001,0.7464751999999999,1
2454,9.234924000000001,-0.9610748,0.7728119000000001,1
2455,9.228943,-0.96347046,0.7716217,1
2456,9.17627,-0.9622803,0.6842345999999999,1
2457,9.216965,-0.9586792,0.7117614999999999,1
2458,9.214569000000001,-0.9371338,0.78479004,1
2459,9.215775,-0.9467163000000001,0.7943573,1
2460,9.209793,-0.9000244000000001,0.75845337,1
2461,9.194229,-0.9371338,0.78718567,1
2462,9.203796,-0.9395294,0.7620392,1
2463,9.2313385,-0.9646759,0.77041626,1
2464,9.227737,-0.94551086,0.7357024999999999,1
2465,9.218169999999999,-0.9335479999999999,0.72972107,1
2466,9.221756,-0.9562988000000001,0.7572479,1
2467,9.212173,-0.94073486,0.77879333,1
2468,9.225342,-0.9586792,0.78718567,1
2469,9.193024000000001,-0.97784424,0.7799988,1
2470,9.213379,-0.9766388,0.75605774,1
2471,9.210983,-0.9838256999999999,0.7967529000000001,1
2472,9.194229,-1.0053710999999999,0.7692260999999999,1
2473,9.226547,-0.9539032,0.7799988,1
2474,9.228943,-0.94911194,0.8266754000000001,1
2475,9.215775,-0.92996216,0.8218994000000001,1
2476,9.212173,-1.0005798000000001,0.7943573,1
2477,9.208588,-1.0041809000000002,0.8027344,1
2478,9.188232000000001,-0.94551086,0.7512665,1
2479,9.208588,-0.9503021,0.74768066,1
2480,9.214569000000001,-0.9251709000000001,0.77760315,1
2481,9.23851,-0.9562988000000001,0.7967529000000001,1
2482,9.199005,-0.92037964,0.8111267,1
2483,9.234924000000001,-0.9826355,0.78718567,1
2484,9.206192,-0.9479065000000001,0.77879333,1
2485,9.188232000000001,-0.9263610999999999,0.7620392,1
2486,9.205002,-0.95150757,0.7763977,1
2487,9.23732,-0.95269775,0.7931670999999999,1
2488,9.201400999999999,-0.9539032,0.77041626,1
2489,9.187042,-0.94551086,0.8135071,1
2490,9.264847,-0.9371338,0.81829834,1
2491,9.267242,-0.97424316,0.8123169,1
2492,9.218169999999999,-0.95269775,0.8027344,1
2493,9.178664999999999,-0.98861694,0.8410492,1
2494,9.187042,-0.96347046,0.8422394,1
2495,9.227737,-0.9395294,0.8410492,1
2496,9.197815,-0.9323425,0.81710815,1
2497,9.178664999999999,-0.9934082000000001,0.80752563,1
2498,9.224152,-0.9898070999999999,0.8135071,1
2499,9.221756,-0.9646759,0.7536621,1
2500,9.254074000000001,-0.94551086,0.7692260999999999,1
2501,9.200211,-0.9479065000000001,0.7931670999999999,1
2502,9.208588,-0.9586792,0.8087310999999999,1
2503,9.207397,-0.9586792,0.8554076999999999,1
2504,9.215775,-0.9766388,0.8625946,1
2505,9.212173,-0.97184753,0.82429504,1
2506,9.189438,-0.9898070999999999,0.8147125,1
2507,9.215775,-0.9610748,0.81710815,1
2508,9.202606,-0.9586792,0.8434448,1
2509,9.197815,-0.9646759,0.844635,1
2510,9.187042,-0.99938965,0.80752563,1
2511,9.214569000000001,-0.93115234,0.82069397,1
2512,9.201400999999999,-0.9646759,0.81710815,1
2513,9.207397,-0.97065735,0.8326720999999999,1
2514,9.214569000000001,-0.9898070999999999,0.82907104,1
2515,9.213379,-0.94073486,0.7763977,1
2516,9.199005,-0.99220276,0.7799988,1
2517,9.227737,-0.96347046,0.8338623,1
2518,9.170288000000001,-0.96347046,0.84584045,1
2519,9.224152,-0.98143005,0.8266754000000001,1
2520,9.196625,-0.97065735,0.81710815,1
2521,9.202606,-0.95150757,0.86380005,1
2522,9.187042,-0.99220276,0.8518219000000001,1
2523,9.227737,-0.9395294,0.83984375,1
2524,9.213379,-0.9838256999999999,0.8374634,1
2525,9.153519000000001,-0.9503021,0.8769530999999999,1
2526,9.188232000000001,-0.9766388,0.8805542,1
2527,9.242111,-0.98023987,0.86380005,1
2528,9.226547,-0.9838256999999999,0.7907715,1
2529,9.197815,-1.0005798000000001,0.7823944,1
2530,9.172684,-0.97784424,0.83506775,1
2531,9.2313385,-0.9550934000000001,0.85780334,1
2532,9.212173,-0.9443207,0.82429504,1
2533,9.207397,-0.94192505,0.83865356,1
2534,9.190628,-0.96347046,0.8147125,1
2535,9.200211,-0.97065735,0.79914856,1
2536,9.225342,-0.97784424,0.8218994000000001,1
2537,9.206192,-0.96946716,0.8254851999999999,1
2538,9.216965,-0.9550934000000001,0.8159026999999999,1
2539,9.188232000000001,-0.94911194,0.80752563,1
2540,9.203796,-0.9562988000000001,0.8590088,1
2541,9.194229,-0.96347046,0.8147125,1
2542,9.172684,-0.97784424,0.81710815,1
2543,9.202606,-0.9562988000000001,0.8147125,1
2544,9.212173,-0.9443207,0.82429504,1
2545,9.206192,-0.98143005,0.83506775,1
2546,9.2313385,-0.98501587,0.8326720999999999,1
2547,9.215775,-0.98501587,0.7823944,1
2548,9.221756,-0.97065735,0.8302765,1
2549,9.191833500000001,-0.97184753,0.80513,1
2550,9.193024000000001,-0.9826355,0.8015441999999999,1
2551,9.201400999999999,-0.98143005,0.8087310999999999,1
2552,9.207397,-0.9898070999999999,0.7823944,1
2553,9.203796,-0.9790344000000001,0.78837585,1
2554,9.243300999999999,-0.96707153,0.79556274,1
2555,9.190628,-0.97184753,0.7752074999999999,1
2556,9.202606,-0.9730530000000001,0.75605774,1
2557,9.230133,-0.9550934000000001,0.7823944,1
2558,9.213379,-0.96946716,0.76802063,1
2559,9.183456,-0.95269775,0.80992126,1
2560,9.224152,-0.9934082000000001,0.77401733,1
2561,9.228943,-0.9586792,0.7572479,1
2562,9.170288000000001,-0.9981841999999999,0.74887085,1
2563,9.236130000000001,-1.0041809000000002,0.79556274,1
2564,9.261261,-1.0400848,0.77760315,1
2565,9.222961,-1.012558,0.6926116999999999,1
2566,9.212173,-0.96347046,0.7333069000000001,1
2567,9.188232000000001,-1.0065765,0.76322937,1
2568,9.202606,-0.96347046,0.7428894,1
2569,9.182250999999999,-0.9550934000000001,0.7644348000000001,1
2570,9.163101,-0.9910126,0.6938019,1
2571,9.239716,-0.9981841999999999,0.69140625,1
2572,9.203796,-0.96946716,0.6926116999999999,1
2573,9.221756,-0.9467163000000001,0.721344,1
2574,9.227737,-0.9981841999999999,0.7177429,1
2575,9.209793,-1.0173492,0.6950073,1
2576,9.201400999999999,-0.99938965,0.73809814,1
2577,9.21936,-0.9790344000000001,0.78837585,1
2578,9.224152,-0.9766388,0.72372437,1
2579,9.228943,-0.96347046,0.77760315,1
2580,9.196625,-0.9874115,0.7345123,1
2581,9.201400999999999,-0.96946716,0.7763977,1
2582,9.239716,-0.9957886,0.79914856,1
2583,9.218169999999999,-1.0065765,0.77760315,1
2584,9.214569000000001,-0.98501587,0.7799988,1
2585,9.221756,-0.98501587,0.77879333,1
2586,9.203796,-0.9574889999999999,0.78956604,1
2587,9.202606,-0.9874115,0.7859802,1
2588,9.225342,-0.9910126,0.79914856,1
2589,9.226547,-0.95269775,0.76802063,1
2590,9.209793,-0.9646759,0.75845337,1
2591,9.208588,-0.93473816,0.7835846,1
2592,9.218169999999999,-0.996994,0.77879333,1
2593,9.207397,-0.9766388,0.81829834,1
2594,9.227737,-0.9443207,0.7931670999999999,1
2595,9.261261,-0.9838256999999999,0.8135071,1
2596,9.199005,-0.98861694,0.75964355,1
2597,9.148727000000001,-0.9754485999999999,0.8135071,1
2598,9.232529,-1.020935,0.80033875,1
2599,9.243300999999999,-1.012558,0.76322937,1
2600,9.194229,-1.0005798000000001,0.7512665,1
2601,9.154724,-1.0101624,0.75964355,1
2602,9.196625,-0.98023987,0.8338623,1
2603,9.218169999999999,-0.98023987,0.844635,1
2604,9.224152,-0.95988464,0.81710815,1
2605,9.201400999999999,-0.9658661000000001,0.8135071,1
2606,9.201400999999999,-0.9826355,0.7931670999999999,1
2607,9.213379,-0.98501587,0.7823944,1
2608,9.21936,-0.9574889999999999,0.7716217,1
2609,9.203796,-0.9682617,0.7859802,1
2610,9.205002,-1.0017853,0.80992126,1
2611,9.205002,-1.0101624,0.83625793,1
2612,9.206192,-1.0065765,0.78479004,1
2613,9.208588,-0.98501587,0.7728119000000001,1
2614,9.212173,-0.9790344000000001,0.7572479,1
2615,9.188232000000001,-0.94192505,0.77760315,1
2616,9.200211,-0.97065735,0.8159026999999999,1
2617,9.178664999999999,-0.98143005,0.80513,1
2618,9.194229,-0.9503021,0.78956604,1
2619,9.227737,-0.9323425,0.78479004,1
2620,9.210983,-0.9467163000000001,0.8721771,1
2621,9.201400999999999,-0.9826355,0.8530120999999999,1
2622,9.189438,-0.97424316,0.82429504,1
2623,9.215775,-0.9479065000000001,0.78956604,1
2624,9.207397,-0.97184753,0.8039398,1
2625,9.213379,-0.9586792,0.8422394,1
2626,9.2313385,-1.0053710999999999,0.86738586,1
2627,9.195419000000001,-0.9682617,0.8111267,1
2628,9.210983,-0.996994,0.81829834,1
2629,9.225342,-0.98501587,0.8254851999999999,1
2630,9.187042,-0.96946716,0.8027344,1
2631,9.21936,-0.94911194,0.8123169,1
2632,9.2313385,-0.98023987,0.8159026999999999,1
2633,9.213379,-0.9934082000000001,0.77760315,1
2634,9.207397,-0.9945984,0.83625793,1
2635,9.199005,-0.9766388,0.8482360999999999,1
2636,9.267242,-0.9862213,0.79196167,1
2637,9.199005,-0.97184753,0.79556274,1
2638,9.164291,-0.9790344000000001,0.78837585,1
2639,9.166687,-0.9622803,0.8554076999999999,1
2640,9.214569000000001,-0.95150757,0.83984375,1
2641,9.199005,-0.9610748,0.8338623,1
2642,9.17627,-0.9826355,0.7752074999999999,1
2643,9.193024000000001,-0.9766388,0.8518219000000001,1
2644,9.213379,-0.97784424,0.80633545,1
2645,9.196625,-0.97784424,0.8039398,1
2646,9.195419000000001,-0.97784424,0.81710815,1
2647,9.191833500000001,-0.9754485999999999,0.8266754000000001,1
2648,9.183456,-1.0041809000000002,0.8625946,1
2649,9.233734,-0.996994,0.8518219000000001,1
2650,9.200211,-1.0065765,0.8111267,1
2651,9.209793,-0.9826355,0.8135071,1
2652,9.200211,-0.98861694,0.8218994000000001,1
2653,9.213379,-0.99220276,0.8135071,1
2654,9.226547,-0.9610748,0.83984375,1
2655,9.182250999999999,-0.996994,0.78118896,1
2656,9.216965,-0.97065735,0.7967529000000001,1
2657,9.203796,-0.9562988000000001,0.8039398,1
2658,9.214569000000001,-0.95150757,0.7967529000000001,1
2659,9.199005,-0.9371338,0.80992126,1
2660,9.218169999999999,-0.9251709000000001,0.8135071,1
2661,9.240905999999999,-0.9371338,0.8302765,1
2662,9.196625,-0.9754485999999999,0.8326720999999999,1
2663,9.214569000000001,-1.0460815,0.8434448,1
2664,9.203796,-1.0113524999999999,0.8159026999999999,1
2665,9.167892,-1.0221252,0.8338623,1
2666,9.205002,-0.996994,0.8338623,1
2667,9.226547,-0.996994,0.8601989999999999,1
2668,9.213379,-0.97065735,0.8338623,1
2669,9.172684,-0.9682617,0.8135071,1
2670,9.230133,-0.9610748,0.8338623,1
2671,9.228943,-0.9682617,0.7931670999999999,1
2672,9.17746,-0.9790344000000001,0.7716217,1
2673,9.166687,-0.98501587,0.8266754000000001,1
2674,9.244507,-1.0017853,0.8218994000000001,1
2675,9.23851,-1.0101624,0.7464751999999999,1
2676,9.188232000000001,-1.0257263,0.7321167,1
2677,9.183456,-0.99220276,0.8087310999999999,1
2678,9.212173,-0.9766388,0.765625,1
2679,9.213379,-0.9479065000000001,0.74887085,1
2680,9.228943,-0.9503021,0.6770477,1
2681,9.215775,-0.9730530000000001,0.6375427,1
2682,9.221756,-1.0113524999999999,0.65908813,1
2683,9.214569000000001,-1.0233306999999998,0.6926116999999999,1
2684,9.225342,-0.9550934000000001,0.69859314,1
2685,9.23732,-0.9910126,0.6842345999999999,1
2686,9.199005,-0.97784424,0.6375427,1
2687,9.197815,-1.0017853,0.6842345999999999,1
2688,9.215775,-1.0065765,0.64112854,1
2689,9.200211,-0.9766388,0.67944336,1
2690,9.206192,-0.97424316,0.64352417,1
2691,9.220566,-0.9934082000000001,0.6746521,1
2692,9.222961,-0.9371338,0.63993835,1
2693,9.212173,-0.96946716,0.62197876,1
2694,9.216965,-0.9730530000000001,0.6279602,1
2695,9.234924000000001,-0.97424316,0.6674651999999999,1
2696,9.199005,-0.9730530000000001,0.67344666,1
2697,9.201400999999999,-0.9754485999999999,0.6531066999999999,1
2698,9.224152,-0.9838256999999999,0.70578,1
2699,9.216965,-0.9754485999999999,0.73091125,1
2700,9.213379,-0.9862213,0.6854248000000001,1
2701,9.240905999999999,-0.97424316,0.7536621,1
2702,9.21936,-0.9862213,0.72732544,1
2703,9.202606,-0.97784424,0.7512665,1
2704,9.199005,-0.9957886,0.7333069000000001,1
2705,9.225342,-0.9646759,0.75006104,1
2706,9.2313385,-0.97784424,0.72972107,1
2707,9.181061,-0.97184753,0.7752074999999999,1
2708,9.202606,-0.99938965,0.78956604,1
2709,9.232529,-0.9658661000000001,0.7692260999999999,1
2710,9.232529,-1.0269165,0.7249298000000001,1
2711,9.216965,-0.9898070999999999,0.72732544,1
2712,9.212173,-0.9874115,0.7428894,1
2713,9.203796,-0.9646759,0.79196167,1
2714,9.214569000000001,-0.9395294,0.7931670999999999,1
2715,9.165497,-0.92996216,0.77401733,1
2716,9.203796,-0.95150757,0.7536621,1
2717,9.207397,-0.99220276,0.7333069000000001,1
2718,9.214569000000001,-0.9622803,0.72972107,1
2719,9.200211,-0.97184753,0.7033844,1
2720,9.225342,-0.9766388,0.7404938,1
2721,9.206192,-0.96946716,0.78956604,1
2722,9.222961,-1.0137482,0.7728119000000001,1
2723,9.193024000000001,-0.9682617,0.78956604,1
2724,9.212173,-0.97184753,0.7907715,1
2725,9.202606,-0.95269775,0.80033875,1
2726,9.209793,-0.97184753,0.77879333,1
2727,9.21936,-0.9431305,0.83506775,1
2728,9.207397,-0.97184753,0.8135071,1
2729,9.190628,-0.94551086,0.844635,1
2730,9.197815,-0.97184753,0.78718567,1
2731,9.202606,-0.9790344000000001,0.7763977,1
2732,9.202606,-0.9838256999999999,0.78118896,1
2733,9.201400999999999,-0.9898070999999999,0.760849,1
2734,9.205002,-0.9910126,0.7644348000000001,1
2735,9.203796,-0.94911194,0.7620392,1
2736,9.213379,-0.9431305,0.7835846,1
2737,9.21936,-0.95988464,0.78837585,1
2738,9.227737,-0.97184753,0.79914856,1
2739,9.188232000000001,-0.98501587,0.7752074999999999,1
2740,9.208588,-0.97065735,0.8218994000000001,1
2741,9.165497,-0.97065735,0.8374634,1
2742,9.201400999999999,-0.97424316,0.82788086,1
2743,9.236130000000001,-0.98861694,0.760849,1
2744,9.210983,-0.98861694,0.80513,1
2745,9.183456,-0.9862213,0.83865356,1
2746,9.221756,-1.012558,0.8254851999999999,1
2747,9.274429,-0.9934082000000001,0.7763977,1
2748,9.218169999999999,-0.9539032,0.75964355,1
2749,9.173874,-0.9910126,0.7967529000000001,1
2750,9.213379,-0.97184753,0.8482360999999999,1
2751,9.202606,-0.9287566999999999,0.8159026999999999,1
2752,9.195419000000001,-0.93115234,0.78837585,1
2753,9.193024000000001,-0.9682617,0.8039398,1
2754,9.212173,-0.9898070999999999,0.7859802,1
2755,9.224152,-0.9754485999999999,0.7931670999999999,1
2756,9.205002,-0.9622803,0.8147125,1
2757,9.195419000000001,-0.96946716,0.8422394,1
2758,9.226547,-0.97424316,0.82069397,1
2759,9.193024000000001,-0.9838256999999999,0.82429504,1
2760,9.200211,-1.0005798000000001,0.83625793,1
2761,9.201400999999999,-0.996994,0.7979584,1
2762,9.197815,-0.9790344000000001,0.8159026999999999,1
2763,9.222961,-0.9826355,0.8111267,1
2764,9.203796,-0.95269775,0.78956604,1
2765,9.209793,-0.94911194,0.8410492,1
2766,9.227737,-0.9730530000000001,0.83865356,1
2767,9.202606,-0.9646759,0.8434448,1
2768,9.196625,-0.9479065000000001,0.8147125,1
2769,9.225342,-0.9838256999999999,0.7907715,1
2770,9.215775,-0.98143005,0.82069397,1
2771,9.207397,-0.9622803,0.8015441999999999,1
