,AccX[m/s^2],AccY[m/s^2],AccZ[m/s^2],label
0,8.402939,-0.4451294,2.99823,1
1,8.402939,-0.4451294,2.99823,1
2,8.241333000000001,-0.60913086,2.7300720000000003,1
3,8.620819000000001,-0.8677063,2.6929626,1
4,9.024231,-0.5564574999999999,2.5612793,1
5,9.699402000000001,-0.30267334,1.9854736000000002,1
6,8.32991,0.04808044400000001,2.2584076,1
7,8.926071,-0.39126587,2.3793182,1
8,9.306747,-0.42597959999999996,2.28714,1
9,9.090073,-0.17578125,2.1638488999999996,1
10,9.382172,-0.5205536000000001,2.0800476000000003,1
11,9.330688,-0.40083313,1.8166808999999997,1
12,9.244507,-0.5792084,1.9232330000000002,1
13,8.678268,-0.8317870999999999,0.9679413,1
14,8.541808999999999,-0.15303039999999998,0.03060913,1
15,6.685104400000001,-0.38887024,0.8027344,1
16,9.142746,0.9614563,0.6938019,1
17,9.579697,0.88365173,0.012649536000000001,1
18,10.016632000000001,0.08758545,0.33587646,1
19,11.020996,0.41677856,-0.5727234,1
20,11.183807,-0.22964478,-0.18965149,1
21,8.475967,-0.3254242,0.3777771,1
22,8.290421,-0.85572815,-0.03642273,1
23,9.118805,-0.33738708,-0.8504485999999999,1
24,8.260483,-0.08480835,-0.012481688999999999,1
25,8.926071,0.045684814000000004,-0.4051361,1
26,10.234511999999999,-0.2966919,0.42445374,1
27,10.669052,-0.46188354,0.38734436,1
28,11.261612,0.95188904,-1.4466094999999999,1
29,8.775238,0.8046416999999999,0.10722351,1
30,9.981917999999999,0.5017699999999999,-0.44943237,1
31,9.80954,-0.00579834,0.08328247,1
32,9.9879,0.83576965,0.13954163,1
33,10.181839,1.5791626,-0.4673767,1
34,8.683060000000001,0.7651366999999999,-0.31295776,1
35,7.946838400000001,0.6214905,-0.8564453000000002,1
36,9.286407,0.299469,0.24130249,1
37,8.859039,0.45149229999999996,0.007858275999999999,1
38,8.526245,0.42515564,-0.5607605,1
39,9.188232000000001,0.7328186,-1.4358368000000001,1
40,9.218169999999999,-0.14944458,-2.0738983,1
41,9.295975,-0.02015686,-2.5048522999999996,1
42,8.84108,0.28630066,-2.6688537999999995,1
43,9.048172000000001,-0.5061798,-2.1169891,1
44,9.923264,-1.7691192999999998,6.9965363,1
45,6.9736023000000005,-1.522522,-5.486831700000001,1
46,11.650681,0.1953125,-4.784134,1
47,8.746506,0.32460022,-3.3428192,1
48,6.855087299999999,-1.5823822,-3.9629211000000004,1
49,6.8191833,-1.7379913,-2.5766754,1
50,7.3865967,-0.6761626999999999,-2.3623962000000005,1
51,6.354706,-1.8265839,-2.2055817,1
52,6.70665,-2.439499,-3.4828796000000004,1
53,7.1555634,-2.9985504,-2.0487518,1
54,7.7050323,-3.1733246,-1.7542725,1
55,7.8079834,-3.9454498,-2.0379791000000003,1
56,14.305847,-7.163253999999999,-7.5302734,1
57,11.900864,-0.46667479999999995,-8.514297500000001,1
58,8.933258,-1.028122,-3.8503876000000004,1
59,5.7381897,-1.2866973999999998,-3.5439300000000005,1
60,6.2110443,-1.5141448999999998,-3.5774536,1
61,5.497574,-1.0185394,-5.0905914,1
62,4.664398,-1.3597107,-3.7737732000000004,1
63,5.0522614,-1.7020874,-3.6205443999999996,1
64,5.521515,-1.8014526000000002,-3.820465,1
65,6.130844000000001,-2.024109,-4.289733999999999,1
66,6.094925,-1.9857941000000003,-4.958908,1
67,5.177948000000001,-1.5213165000000002,-5.9333496,1
68,5.805237,-1.289093,-5.9249725,1
69,7.0142975000000005,-1.6386414,-5.049881,1
70,7.727767999999999,-3.076355,-4.6285095,1
71,7.082535000000001,-3.7311707000000003,-5.5538635,1
72,5.568207,-3.6198425000000003,-5.7920837,1
73,5.167175299999999,-3.7419434000000003,-4.8451843,1
74,5.600525,-2.6334229,-3.9641113,1
75,6.011139,-0.59954834,-4.357956,1
76,6.206253,0.6214905,-5.5095673,1
77,8.692642,1.0332947000000001,-7.203475999999999,1
78,9.711364999999999,-0.13986206,-7.857086,1
79,8.480758999999999,-1.9367218000000002,-7.4273224,1
80,7.6343994,-2.7136383,-6.7521667,1
81,7.4847565000000005,-2.3988037,-5.9261627,1
82,7.4057617,-1.6003265,-6.0326996,1
83,7.502716,-1.2411957,-6.1200867,1
84,7.628417999999999,-0.6318816999999999,-6.2146606,1
85,7.379425,-0.48703003,-6.3128204000000006,1
86,7.122039999999999,-0.79467773,-6.2888794,1
87,6.554611,-1.1358643,-7.385437,1
88,7.3303375,-1.1490326000000002,-7.287261999999999,1
89,7.9707794000000005,-1.0197449,-7.318389999999999,1
90,7.8953705,-1.2208557,-7.5254974,1
91,7.8833923,-1.506958,-6.7246246,1
92,8.474762,-1.4315338,-6.109314,1
93,9.458786,-0.9060210999999999,-6.235016000000001,1
94,11.064102,0.055252075,-6.650405999999999,1
95,13.393645999999999,0.1618042,-7.0131380000000005,1
96,13.176971,0.6250763,-8.089325,1
97,13.270354999999999,0.4802246,-7.460846000000001,1
98,12.807068,-0.2966919,-6.8431396,1
99,12.421616,-1.0747986,-4.3124695,1
100,10.485901,-1.7212372,-3.2829589999999995,1
101,8.606444999999999,-0.8772888000000001,-2.093048,1
102,6.822769,0.14144897,-0.9546051,1
103,5.438919,0.41198729999999995,0.5693054,1
104,5.5765839999999995,0.05885315,0.2520752,1
105,5.628067,-0.14346313,-0.47337340000000006,1
106,7.0729675,-0.31225586,-1.5040741000000002,1
107,8.278442,-0.38287354,-2.6592712000000005,1
108,9.88974,-0.83418274,-3.3643646,1
109,11.001846,-0.9862213,-3.4900665,1
110,10.8582,-0.5600586,-3.1524810000000003,1
111,10.575683999999999,-0.22964478,-2.2809906000000004,1
112,9.789185,-0.0440979,-1.5280151000000002,1
113,8.953613,0.20848083,-1.0551605,1
114,8.473572,0.62628174,-0.5104827999999999,1
115,8.1527405,0.5987395999999999,-0.51885986,1
116,8.130005,0.17497253,-0.7750397,1
117,8.387375,-0.27394104,-1.0539703,1
118,8.854248,-0.39485168,-1.0539703,1
119,8.985930999999999,-0.289505,-0.95700073,1
120,9.0793,-0.16261292,-0.9330596999999999,1
121,9.392944,0.08758545,-0.57032776,1
122,9.37619,-0.08958435,-0.6708831999999999,1
123,9.477936,-0.27275085,-0.8205261,1
124,9.855025999999999,0.026535034,-0.8384857,1
125,9.655106,0.32460022,-0.8612366,1
126,9.124786,0.27792358,-0.9115143,1
127,8.702209,-0.28231812,-0.72236633,1
128,8.462799,-0.98501587,-0.86361694,1
129,9.012267999999999,-1.3381653,-1.2694397,1
130,10.306335,-0.68455505,-2.1457214,1
131,10.154297,0.24440002,-2.6808167000000003,1
132,9.503082000000001,0.596344,-2.294159,1
133,9.69342,-0.5157623,-1.574707,1
134,9.598846,-0.88446045,-1.8237,1
135,9.21936,-0.38168335,-1.5806885,1
136,9.318726,-0.16979979999999997,-1.658493,1
137,9.467163000000001,-0.28471375,-1.2790222,1
138,9.323516999999999,-0.64505005,-1.1904297,1
139,9.422867,-0.9287566999999999,-1.4968872,1
140,9.803543,-0.96946716,-1.7578582999999999,1
141,9.590469,-0.72525024,-1.7075806,1
142,9.2313385,-1.2986603,-1.7279358,1
143,9.099655,-2.0600128,-1.8991089,1
144,8.813553,-2.2491608,-2.2450714,1
145,8.5849,-1.9295349,-2.752655,1
146,7.9217070000000005,-1.4387207,-3.0363617,1
147,8.954803,-0.8282013,-3.4529572,1
148,9.697006,-0.11352539,-3.7989197,1
149,10.4092865,0.28390503,-3.4290160000000003,1
150,10.203384,-0.20211792,-2.8783417,1
151,9.3893585,-1.0257263,-2.310913,1
152,8.380188,-0.9335479999999999,-1.2814178,1
153,8.059372,-0.47625732,-0.7666626,1
154,7.9995117,-0.5205536000000001,-0.57751465,1
155,7.6427765,-1.0352936,-0.5128784000000001,1
156,8.019867,-1.3848572000000001,-0.27824402,1
157,8.807556,-1.3860473999999998,-0.097473145,1
158,9.372589,-1.5297089,-0.34169006,1
159,9.821503,-1.313034,-0.5392151,1
160,9.513855,-0.5827941999999999,-0.78341675,1
161,8.892548,-0.15423584,-1.4549866000000002,1
162,9.488708500000001,-0.13986206,-1.1892395,1
163,9.911285000000001,-0.33140564,-1.030014,1
164,9.633560000000001,-1.0257263,-1.447815,1
165,9.092467999999998,-1.3214111000000002,-1.7327118000000001,1
166,8.92009,-1.2986603,-1.4214783000000002,1
167,8.754883,-1.0700226000000002,-1.634552,1
168,8.929672,-0.5648346,-1.5411834999999998,1
169,8.839889999999999,-0.5600586,-1.6525116000000002,1
170,9.500687,-0.6917267,-1.574707,1
171,9.518631,-0.9048156999999999,-1.9218596999999997,1
172,9.866989,-0.7336273,-1.6788483,1
173,9.707778999999999,-0.5169524999999999,-1.4645691,1
174,9.797562,-0.5337219,-1.1976166000000001,1
175,9.51265,-0.41041565,-0.94862366,1
176,8.905716,-0.59716797,-1.061142,1
177,8.521453999999999,-0.6294860999999999,-0.82650757,1
178,8.382584,-0.8533478000000001,-0.6948395,1
179,8.881775,-0.95150757,-1.0336151,1
180,9.23732,-1.0700226000000002,-1.064743,1
181,9.364212,-1.3633118,-1.1485290000000001,1
182,9.367797999999999,-1.5656128,-1.2419128000000001,1
183,9.303162,-1.562027,-1.3508453,1
184,9.226547,-1.3860473999999998,-1.0958557,1
185,8.918884,-1.3621063,-0.7582855,1
186,8.957199000000001,-1.5177307,-0.57632446,1
187,9.054169,-1.4746399,-0.7175751,1
188,9.25647,-1.3776703000000001,-0.6253966999999999,1
189,9.560532,-1.4842072,-0.5116729999999999,1
190,9.71376,-1.6158905000000001,-0.6481475999999999,1
191,9.594055,-1.6685637999999998,-0.72476196,1
192,9.419281,-1.3704834,-0.3081665,1
193,9.304352,-1.0496674,-0.011291503999999999,1
194,9.166687,-1.0424805,0.001876831,1
195,9.075714,-1.4399261,-0.083114624,1
196,9.209793,-1.7655333999999998,-0.0029144287,1
197,9.31633,-1.8014526000000002,0.03060913,1
198,9.353439,-1.6123047,0.06652832,1
199,9.250488,-1.3836517,0.106033325,1
200,9.153519000000001,-1.2232513,0.18862915,1
201,9.128387,-1.1789551,0.15989685,1
202,9.178664999999999,-1.2124786,0.04019165,1
203,9.135558999999999,-1.2184601000000002,-0.05558777,1
204,9.122391,-1.2627563,0.017440796,1
205,9.268448,-1.3022614,0.18623352,1
206,9.284011999999999,-1.451889,0.13595581,1
207,9.288788,-1.5584412,0.021026611,1
208,9.183456,-1.4363251,-0.011291503999999999,1
209,9.15831,-1.2723236,0.050964355,1
210,9.09845,-0.9287566999999999,-0.026855469,1
211,9.268448,-0.70610046,-0.17050171,1
212,9.39534,-0.70610046,-0.27464294,1
213,9.503082000000001,-0.89404297,-0.34288025,1
214,9.51265,-1.2459869,-0.40274048,1
215,9.343857,-1.3980255,-0.3871765,1
216,9.205002,-1.2064819,-0.23155212,1
217,9.066132000000001,-0.9550934000000001,-0.16452026,1
218,8.599258,-1.0951538,-0.27105713,1
219,8.559753,-1.1885223,-0.06036377,1
220,8.857834,-1.2531738000000001,0.03779602,1
221,9.181061,-1.2843018,0.10482788,1
222,9.407303,-1.1203003,0.12997437,1
223,9.524628,-1.0448761,0.20898438,1
224,9.571304,-1.1562042,0.27601624,1
225,9.536591,-1.2196503,0.14672852,1
226,9.444412,-1.3262024,-0.2507019,1
227,9.343857,-1.2807007,-0.6014556999999999,1
228,9.55455,-1.0388947,-1.0144653000000001,1
229,9.561736999999999,-0.7300415,-1.3053589,1
230,9.274429,-0.4774475,-1.2383118,1
231,8.850662,-0.50138855,-0.9366455,1
232,8.701019,-0.739624,-0.70680237,1
233,8.885375999999999,-1.2711333999999999,-0.6194153,1
234,9.143951,-1.3549194,-0.8360901,1
235,9.495894999999999,-1.0089569,-0.88397217,1
236,9.580886999999999,-0.71447754,-1.1066284,1
237,9.509064,-0.660614,-1.2311401000000002,1
238,9.137955,-0.84376526,-1.0946655,1
239,8.996704,-0.7480011,-0.9905243,1
240,8.945221,-0.8497466999999999,-0.8169403000000001,1
241,8.982330000000001,-0.99938965,-0.7307434,1
242,9.269638,-1.1969147,-0.79418945,1
243,9.359421000000001,-1.1813506999999999,-0.8360901,1
244,9.416885,-1.0352936,-0.8360901,1
245,9.300766000000001,-0.9790344000000001,-1.2502898999999998,1
246,9.001495,-0.9754485999999999,-1.3197173999999998,1
247,9.081696,-0.86172485,-0.85884094,1
248,9.172684,-0.67855835,-0.5344238,1
249,9.096069,-0.50138855,-0.6014556999999999,1
250,8.8051605,-0.23085022,-0.9222870000000001,1
251,8.751297000000001,-0.17936707,-1.4310455,1
252,8.7656555,-0.3074646,-1.9912872,1
253,9.122391,-0.3481598,-1.5830841,1
254,9.475539999999999,-0.59954834,-1.4813232,1
255,9.462372,-0.6498413000000001,-1.6728668000000002,1
256,9.322311000000001,-1.0879669,-1.5962524,1
257,9.220566,-1.2112732,-1.5639343,1
258,9.154724,-1.0305176,-1.5208282,1
259,8.903336,-0.7156677,-1.7219391,1
260,8.909317,-0.7096863,-1.9936828999999998,1
261,9.103241,-1.2651367,-2.168457,1
262,9.353439,-1.6123047,-2.2127533,1
263,9.510254,-1.5692138999999998,-2.13974,1
264,9.385757,-1.4734344,-1.9733429,1
265,9.343857,-1.5165405,-2.0367889999999997,1
266,9.578491,-1.028122,-2.2163543999999997,1
267,9.483917,-0.42118835,-2.5850525,1
268,8.96199,-0.16859436,-3.1692352,1
269,8.219788000000001,-0.088394165,-3.3188782,1
270,8.200638,-0.30865479999999995,-3.2937317000000004,1
271,8.964386,-0.63786316,-3.2937317000000004,1
272,9.680252000000001,-0.63427734,-3.7258910000000003,1
273,9.882553,-0.4846344,-3.3966827000000004,1
274,9.79158,-0.74320984,-3.4110565000000004,1
275,9.635956,-0.44273376,-2.3671875,1
276,9.214569000000001,-0.22366333,-1.6896209999999998,1
277,8.538208000000001,-0.2787323,-1.0838927999999999,1
278,8.358642999999999,-0.39724729999999997,-0.95339966,1
279,8.756088,-0.29908752,-1.0539703,1
280,9.092467999999998,-0.023742676,-0.7786255,1
281,9.0733185,-0.109939575,-0.7295531999999999,1
282,8.717773,-0.040512085,-1.188034,1
283,8.223372999999999,-0.107543945,-1.7806091,1
284,8.430481,-0.37210083,-2.1648712000000003,1
285,9.327103,-0.5851898,-1.8979186999999997,1
286,9.664688,-0.64624023,-1.7782135,1
287,9.868195,-0.5456848000000001,-2.005661,1
288,9.586867999999999,-0.5384979,-2.5096436,1
289,9.543777,-0.41520690000000005,-2.5922394,1
290,9.189438,-0.42837524,-2.757431,1
291,8.835098,-0.29788208,-1.8787688999999999,1
292,8.606444999999999,-0.34338379999999996,-1.3245087,1
293,8.629196,-0.43077087,-0.83010864,1
294,8.429275500000001,-0.6330719,-0.7738341999999999,1
295,8.496307,-0.7779235999999999,-0.80137634,1
296,8.684265,-1.3142242,-1.0156555,1
297,8.513077000000001,-1.6625824,-1.3915405,1
298,8.867416,-2.1845244999999998,-1.3927459999999998,1
299,9.275619500000001,-2.6118773999999996,-1.5447693,1
300,9.134369,-2.2443695,-1.768631,1
301,9.470749,-1.7523651000000002,-1.9051056,1
302,9.419281,-1.5285034,-2.0104523000000003,1
303,9.273239,-1.2819061,-1.7470856,1
304,9.029022,-1.1657867,-1.5842743000000001,1
305,8.861435,-1.5356903,-1.4885101,1
306,9.633560000000001,-1.9139709999999999,-1.2395171999999999,1
307,10.137542999999999,-2.0851593,-1.2059937,1
308,9.501877,-2.1893005000000003,-1.8703918000000002,1
309,8.606444999999999,-1.8493346999999998,-1.9841156000000002,1
310,8.517868,-1.4075928,-1.6560974,1
311,8.957199000000001,-0.9395294,-1.1904297,1
312,9.127182000000001,-0.8641205,-1.1688843,1
313,8.908112,-0.9395294,-0.966568,1
314,8.76207,-0.80784607,-1.3065491000000002,1
315,8.888962,-0.8880615,-1.5615386999999998,1
316,9.793975999999999,-0.8665161,-2.2223357999999998,1
317,10.951569000000001,-1.3501433999999999,-3.4158477999999994,1
318,10.678635,-2.4993591,-3.9389800000000004,1
319,9.852631,-3.0392456,-3.8180695,1
320,9.062546000000001,-2.5855408,-3.5140076000000002,1
321,8.667496,-2.0217133,-3.1129759999999997,1
322,7.7996063,-1.2830963,-2.9453888,1
323,6.8754425,-0.58877563,-2.79216,1
324,6.8311462,-0.23085022,-2.5922394,1
325,6.9340972999999995,-0.19013977,-2.3240814,1
326,7.0250699999999995,-0.52293396,-2.1576842999999997,1
327,7.022689999999999,-0.73483276,-1.7817993000000003,1
328,7.4572296,-0.6713866999999999,-1.7099761999999998,1
329,8.350265499999999,-0.25479126,-1.4310455,1
330,9.048172000000001,-0.35774229999999996,-1.4298553,1
331,10.276398,-1.3429565,-0.9354553,1
332,11.374145500000001,-1.7188416000000002,-1.4657593,1
333,12.092407000000001,-1.5512542999999999,-3.0758667,1
334,11.475891,-1.5907593,-4.3005066,1
335,10.484695,-1.6721648999999998,-4.266983,1
336,10.111206,-1.2914733999999999,-2.9178467,1
337,9.591660000000001,-1.0137482,-1.9877014,1
338,8.696228,-1.2040863000000002,-1.7207488999999998,1
339,7.7996063,-1.5548401,-1.579483,1
340,7.6739044000000005,-1.1789551,-1.7075806,1
341,7.818756,-0.6222991999999999,-1.6944122,1
342,8.351471,-0.41999817,-1.658493,1
343,9.105637,-0.6761626999999999,-2.0954436999999997,1
344,9.833480999999999,-1.0700226000000002,-2.8567963,1
345,9.953186,-1.1346588,-3.1704407000000003,1
346,9.558136,-1.1981049,-3.2266998,1
347,9.163101,-1.4961853,-2.508438,1
348,8.923675999999999,-1.6529999,-1.7422943,1
349,8.7608795,-1.6075133999999998,-1.5998383,1
350,8.544205,-1.412384,-1.3328857,1
351,8.82312,-1.0065765,-1.4813232,1
352,9.274429,-0.53970337,-1.9541779,1
353,9.410903999999999,-0.14465332,-2.0750884999999997,1
354,9.3498535,-0.3146515,-1.7506714,1
355,9.340271000000001,-0.5959625,-1.4418182,1
356,9.148727000000001,-0.40083313,-1.3807677999999999,1
357,9.093674,-0.2212677,-1.4095001,1
358,9.408508,-0.08480835,-1.5854796999999998,1
359,9.798767,-0.49061584,-1.6932220000000002,1
360,9.710175,-0.6761626999999999,-1.8021544999999999,1
361,9.31633,-0.8066559,-1.6704712,1
362,8.712982,-0.77194214,-1.4992828,1
363,8.340698,-0.8186188,-0.71517944,1
364,8.453217,-0.74560547,-0.77264404,1
365,8.689041,-0.5205536000000001,-0.927063,1
366,9.009872,-0.25120544,-1.0707245,1
367,9.2708435,-0.20930481,-1.0431824,1
368,9.305557,-0.04888916,-1.0527649,1
369,9.635956,-0.06564331,-1.258667,1
370,9.558136,-0.015365601000000001,-1.1976166000000001,1
371,9.2708435,-0.0045928955,-0.87080383,1
372,9.043396000000001,-0.006988525400000001,-0.72236633,1
373,8.857834,-0.069244385,-0.5116729999999999,1
374,8.972763,-0.24760437,-0.46858215,1
375,9.052963,-0.29071045,-0.34288025,1
376,9.251678,-0.47505188,-0.4063263,1
377,9.450409,-0.6725769,-0.69244385,1
378,9.331894,-0.94192505,-0.75468445,1
379,9.306747,-0.91200256,-0.6505432,1
380,9.212173,-0.7503966999999999,-0.788208,1
381,9.14035,-0.5277251999999999,-0.66371155,1
382,9.17746,-0.3768921,-0.6601104999999999,1
383,9.2708435,-0.39485168,-0.81933594,1
384,9.364212,-0.50857544,-0.9151001,1
385,9.305557,-0.7048949999999999,-1.006073,1
386,9.190628,-0.739624,-0.98812866,1
387,9.248092999999999,-0.66778564,-0.94262695,1
388,9.301956,-0.5600586,-0.91270447,1
389,9.33548,-0.4834442,-1.0228424,1
390,9.333084,-0.37809753,-1.1102295,1
391,9.318726,-0.32063293,-1.109024,1
392,9.29837,-0.33021545,-1.1569061,1
393,9.282805999999999,-0.43077087,-1.0419922,1
394,9.266052,-0.4343567,-0.90911865,1
395,9.182250999999999,-0.42118835,-0.81095886,1
396,9.125992,-0.35534668,-0.7056121999999999,1
397,9.199005,-0.29548645,-0.60505676,1
398,9.228943,-0.27514648,-0.65293884,1
399,9.264847,-0.33499146,-0.6888428000000001,1
400,9.348647999999999,-0.37091064,-0.7774353,1
401,9.266052,-0.34576416,-0.79299927,1
402,9.133179,-0.28710938,-0.6996155,1
403,9.182250999999999,-0.31344604,-0.5212555,1
404,9.291183,-0.33021545,-0.5978699000000001,1
405,9.240905999999999,-0.5205536000000001,-0.68525696,1
406,9.388152999999999,-0.5444945999999999,-0.7103881999999999,1
407,9.323516999999999,-0.51934814,-0.88038635,1
408,9.171478,-0.41520690000000005,-0.72117615,1
409,9.252884,-0.38887024,-0.59547424,1
410,9.3498535,-0.39964294,-0.5463866999999999,1
411,9.272034,-0.47505188,-0.55477905,1
412,9.189438,-0.47865295,-0.5499878,1
413,9.152328500000001,-0.46069336,-0.5463866999999999,1
414,9.197815,-0.47865295,-0.63139343,1
415,9.274429,-0.43077087,-0.669693,1
416,9.269638,-0.3541565,-0.66490173,1
417,9.276825,-0.29908752,-0.6433563,1
418,9.23732,-0.32781982,-0.7080078000000001,1
419,9.17746,-0.41400146,-0.7295531999999999,1
420,9.189438,-0.4487152,-0.76187134,1
421,9.226547,-0.42118835,-0.66371155,1
422,9.329498,-0.41400146,-0.66729736,1
423,9.340271000000001,-0.3876648,-0.65293884,1
424,9.23732,-0.38049316,-0.6253966999999999,1
425,9.183456,-0.38647459999999995,-0.58828735,1
426,9.260071,-0.41041565,-0.669693,1
427,9.267242,-0.46308900000000003,-0.63497925,1
428,9.29837,-0.49182129999999996,-0.64694214,1
429,9.286407,-0.46308900000000003,-0.58709717,1
430,9.340271000000001,-0.46907043,-0.6577301,1
431,9.328292999999999,-0.44752502,-0.6553345,1
432,9.191833500000001,-0.5157623,-0.72117615,1
433,9.25647,-0.53012085,-0.654129,1
434,9.222961,-0.37570190000000003,-0.8277129999999999,1
435,9.243300999999999,-0.29071045,-0.7738341999999999,1
436,9.240905999999999,-0.22247314,-0.7307434,1
437,9.324707,-0.24641418,-0.7020111,1
438,9.324707,-0.3649292,-0.6804657,1
439,9.294785000000001,-0.48104858,-0.5823059,1
440,9.269638,-0.4774475,-0.51527405,1
441,9.243300999999999,-0.52893066,-0.5894928,1
442,9.15831,-0.48822020000000005,-0.50450134,1
443,9.171478,-0.5097656,-0.43626404,1
444,9.169083,-0.5708313,-0.43984985,1
445,9.25528,-0.62709045,-0.47695923,1
446,9.355835,-0.64863586,-0.51646423,1
447,9.510254,-0.5959625,-0.57032776,1
448,9.403717,-0.34217834,-0.70440674,1
449,9.233734,-0.119522095,-0.6804657,1
450,8.930862,0.03251648,-0.51646423,1
451,8.959595,-0.095581055,-0.37400818,1
452,9.236130000000001,-0.23683167,-0.37521362,1
453,9.323516999999999,-0.18894958,-0.58470154,1
454,9.136764999999999,-0.26316833,-0.5116729999999999,1
455,9.033813,-0.41281128,-0.38957214,1
456,9.355835,-0.6917267,-0.43745422,1
457,9.571304,-0.83418274,-0.73313904,1
458,9.571304,-0.76834106,-0.95339966,1
459,9.336685000000001,-0.46308900000000003,-0.86961365,1
460,9.245697,-0.3589325,-0.9055175999999999,1
461,9.086487,-0.27035522,-1.1736754999999999,1
462,9.025436000000001,-0.29190063,-1.100647,1
463,9.110428,-0.2571869,-0.9833374,1
464,9.3151245,-0.24162292,-1.0000916,1
465,9.300766000000001,-0.28471375,-0.98213196,1
466,9.188232000000001,-0.29908752,-0.9162903,1
467,9.090073,-0.35653687,-0.91270447,1
468,9.161896,-0.35534668,-0.93785095,1
469,9.239716,-0.4056244,-0.93066406,1
470,9.295975,-0.42477417,-0.9055175999999999,1
471,9.306747,-0.34936523,-0.90193176,1
472,9.291183,-0.38049316,-0.8744049,1
473,9.23851,-0.42237854,-0.9653778000000001,1
474,9.309142999999999,-0.43554688,-1.1162108999999998,1
475,9.272034,-0.3876648,-1.2275391000000002,1
476,9.225342,-0.36732483,-1.2239532,1
477,9.165497,-0.40682983,-1.2897949,1
478,9.070922999999999,-0.41160583,-1.3352814,1
479,9.127182000000001,-0.37449646,-1.3867645,1
480,9.199005,-0.3074646,-1.4897003,1
481,9.311539,-0.289505,-1.6956023999999998,1
482,9.391739,-0.3074646,-1.7458801,1
483,9.380966,-0.29548645,-1.8033447,1
484,9.311539,-0.31225586,-1.768631,1
485,9.213379,-0.289505,-1.6728668000000002,1
486,9.123596000000001,-0.28112793,-1.5232238999999999,1
487,9.141556,-0.22726439999999998,-1.5866699,1
488,8.964386,-0.22486877,-1.5806885,1
489,9.148727000000001,-0.2571869,-1.4657593,1
490,9.221756,-0.25598145,-1.4142914,1
491,9.236130000000001,-0.22007751,-1.3855591,1
492,9.228943,-0.15423584,-1.4071045,1
493,9.220566,-0.119522095,-1.3640136999999999,1
494,9.166687,-0.12550354,-1.3448639,1
495,9.170288000000001,-0.17817688,-1.2790222,1
496,9.163101,-0.1877594,-1.2239532,1
497,9.200211,-0.23085022,-1.1581116000000002,1
498,9.220566,-0.27035522,-1.179657,1
499,9.194229,-0.28352356,-1.1629028000000001,1
500,9.179855,-0.29429626,-1.1210022,1
501,9.206192,-0.32302856,-1.1581116000000002,1
502,9.205002,-0.3074646,-1.1581116000000002,1
503,9.226547,-0.29429626,-1.1257935,1
504,9.21936,-0.32182312,-1.1317749,1
505,9.210983,-0.30865479999999995,-1.1760712,1
506,9.206192,-0.29908752,-1.0910796999999999,1
507,9.184647,-0.34338379999999996,-1.064743,1
508,9.184647,-0.29908752,-1.0994568,1
509,9.188232000000001,-0.2607727,-1.1497344999999999,1
510,9.246902,-0.28471375,-1.1904297,1
511,9.242111,-0.29788208,-1.1976166000000001,1
512,9.207397,-0.289505,-1.1305847,1
513,9.245697,-0.26316833,-1.1976166000000001,1
514,9.123596000000001,-0.24760437,-1.1868439,1
515,9.181061,-0.26437378,-1.1186066000000001,1
516,9.249298,-0.27275085,-1.109024,1
517,9.286407,-0.28710938,-1.1174164,1
518,9.240905999999999,-0.26437378,-1.1102295,1
519,9.220566,-0.26556396,-1.1305847,1
520,9.191833500000001,-0.19613647,-1.1569061,1
521,9.152328500000001,-0.17936707,-1.188034,1
522,9.182250999999999,-0.17098999,-1.2251433999999999,1
523,9.230133,-0.22366333,-1.1964111000000002,1
524,9.246902,-0.21170044,-1.1760712,1
525,9.25528,-0.20809937,-1.179657,1
526,9.227737,-0.24641418,-1.2395171999999999,1
527,9.17627,-0.22605896,-1.234726,1
528,9.191833500000001,-0.26914978,-1.1772614,1
529,9.179855,-0.2212677,-1.2107849,1
530,9.178664999999999,-0.25,-1.2071991000000002,1
531,9.225342,-0.23443604,-1.2203674,1
532,9.251678,-0.25360107,-1.1485290000000001,1
533,9.236130000000001,-0.25958252,-1.2131805,1
534,9.208588,-0.23324585,-1.234726,1
535,9.208588,-0.24401855,-1.2024078,1
536,9.214569000000001,-0.27633667,-1.2371216,1
537,9.165497,-0.26437378,-1.2107849,1
538,9.178664999999999,-0.27275085,-1.1700745000000001,1
539,9.288788,-0.23683167,-1.2598572000000001,1
540,9.185837,-0.27275085,-1.313736,1
541,9.188232000000001,-0.28471375,-1.2419128000000001,1
542,9.245697,-0.28112793,-1.1593018,1
543,9.233734,-0.24880981,-1.1353607,1
544,9.189438,-0.23085022,-1.1078339,1
545,9.155914,-0.24043274,-1.1365662,1
546,9.196625,-0.25837708,-1.1269836000000002,1
547,9.169083,-0.2320404,-1.1856383999999998,1
548,9.190628,-0.27633667,-1.2048035,1
549,9.220566,-0.25,-1.1605072,1
550,9.254074000000001,-0.2787323,-1.179657,1
551,9.233734,-0.25360107,-1.2622528,1
552,9.232529,-0.22726439999999998,-1.2107849,1
553,9.187042,-0.20570374,-1.1569061,1
554,9.224152,-0.24520874,-1.1605072,1
555,9.202606,-0.2715454,-1.1257935,1
556,9.191833500000001,-0.29429626,-1.124588,1
557,9.17746,-0.29548645,-1.1257935,1
558,9.222961,-0.28112793,-1.1712798999999998,1
559,9.284011999999999,-0.26197815,-1.1138153,1
560,9.246902,-0.27633667,-1.1664886,1
561,9.213379,-0.24281311,-1.1605072,1
562,9.178664999999999,-0.24401855,-1.0767058999999999,1
563,9.221756,-0.2607727,-1.1078339,1
564,9.222961,-0.2715454,-1.0479736,1
565,9.210983,-0.25598145,-1.0587463,1
566,9.29718,-0.23324585,-1.2000122,1
567,9.172684,-0.24043274,-1.2502898999999998,1
568,9.170288000000001,-0.29071045,-1.1676941,1
569,9.240905999999999,-0.25360107,-1.0767058999999999,1
570,9.254074000000001,-0.28352356,-1.1317749,1
571,9.226547,-0.28231812,-1.1210022,1
572,9.178664999999999,-0.24641418,-1.1317749,1
573,9.187042,-0.21887207,-1.1413574,1
574,9.199005,-0.23922729999999998,-1.1174164,1
575,9.188232000000001,-0.23803711,-1.1916351,1
576,9.25528,-0.24162292,-1.1629028000000001,1
577,9.285202,-0.25360107,-1.1413574,1
578,9.224152,-0.25239563,-1.1473388999999998,1
579,9.203796,-0.23803711,-1.1377563,1
580,9.193024000000001,-0.20211792,-1.1066284,1
581,9.206192,-0.23085022,-1.0719147,1
582,9.209793,-0.24281311,-1.069519,1
583,9.2313385,-0.22366333,-1.0539703,1
584,9.215775,-0.23803711,-1.0862885,1
585,9.23851,-0.24043274,-1.1210022,1
586,9.246902,-0.2607727,-1.100647,1
587,9.278015,-0.26197815,-1.0838927999999999,1
588,9.226547,-0.24281311,-1.1353607,1
589,9.197815,-0.21887207,-1.1233978,1
590,9.228943,-0.23564148,-1.0874786,1
591,9.23851,-0.26795959999999996,-1.085083,1
592,9.207397,-0.25837708,-1.0431824,1
593,9.244507,-0.22845459,-1.0372009,1
594,9.3103485,-0.17578125,-1.1616973999999998,1
595,9.17746,-0.21887207,-1.1377563,1
596,9.23732,-0.23443604,-1.0862885,1
597,9.285202,-0.24043274,-1.0527649,1
598,9.25647,-0.27633667,-1.0192413,1
599,9.200211,-0.26675415,-0.9905243,1
600,9.196625,-0.20211792,-1.0156555,1
601,9.199005,-0.22007751,-1.0336151,1
602,9.216965,-0.27394104,-1.0288239,1
603,9.254074000000001,-0.2715454,-1.0192413,1
604,9.249298,-0.24880981,-1.0372009,1
605,9.242111,-0.26795959999999996,-1.0683288999999998,1
606,9.21936,-0.26556396,-1.0288239,1
607,9.200211,-0.24520874,-1.0264282,1
608,9.239716,-0.25479126,-1.0431824,1
609,9.236130000000001,-0.25479126,-1.040802,1
610,9.239716,-0.23564148,-1.0012969999999999,1
611,9.234924000000001,-0.23922729999999998,-1.061142,1
612,9.206192,-0.25598145,-1.0886841,1
613,9.205002,-0.21170044,-1.0312195,1
614,9.224152,-0.24641418,-1.0312195,1
615,9.228943,-0.22964478,-1.0814972,1
616,9.232529,-0.2715454,-1.1281891000000002,1
617,9.208588,-0.23564148,-1.0958557,1
618,9.225342,-0.2320404,-1.0898743,1
619,9.23732,-0.21289063,-1.0862885,1
620,9.197815,-0.22605896,-1.1102295,1
621,9.221756,-0.24162292,-1.1186066000000001,1
622,9.258865,-0.17098999,-1.2299347,1
623,9.149933,-0.25,-1.2383118,1
624,9.222961,-0.25479126,-1.1341705,1
625,9.2708435,-0.28471375,-1.1150208000000001,1
626,9.226547,-0.30148315,-1.0755157,1
627,9.214569000000001,-0.25958252,-1.0922698999999998,1
628,9.202606,-0.22366333,-1.1353607,1
629,9.197815,-0.21768188,-1.1856383999999998,1
630,9.200211,-0.16261292,-1.0922698999999998,1
631,9.226547,-0.16740417,-1.1425476,1
632,9.269638,-0.2320404,-1.1581116000000002,1
633,9.272034,-0.2799225,-1.1844482,1
634,9.228943,-0.29429626,-1.2155761999999999,1
635,9.145142,-0.26914978,-1.188034,1
636,9.213379,-0.25,-1.1533203,1
637,9.275619500000001,-0.26197815,-1.1461333999999999,1
638,9.293579,-0.3002777,-1.1748657,1
639,9.267242,-0.24880981,-1.1688843,1
640,9.230133,-0.22007751,-1.1593018,1
641,9.159514999999999,-0.22007751,-1.1461333999999999,1
642,9.131973,-0.19732666,-1.0683288999999998,1
643,9.147537,-0.13388062,-1.0252379999999999,1
644,9.373795,-0.09437561,-1.0922698999999998,1
645,9.458786,-0.13508606,-1.0491791000000001,1
646,9.292389,-0.27035522,-1.0623474,1
647,9.1128235,-0.30267334,-1.0791016000000002,1
648,9.243300999999999,-0.22726439999999998,-0.8312988000000001,1
649,9.345061999999999,-0.22964478,-0.69363403,1
650,9.226547,-0.25479126,-0.8360901,1
651,9.164291,-0.31942750000000003,-0.8791809000000002,1
652,9.160706,-0.2715454,-0.8073578,1
653,9.339081,-0.20930481,-0.71398926,1
654,9.424072,-0.19493103,-0.7917938,1
655,9.359421000000001,-0.21409607,-0.7690581999999999,1
656,9.421677,-0.24641418,-0.79418945,1
657,9.288788,-0.25958252,-0.7283478,1
658,9.278015,-0.13508606,-0.5463866999999999,1
659,9.279221000000001,0.02293396,-0.48654175,1
660,9.14035,0.091171265,-0.44104004,1
661,9.299576,0.115112305,-0.417099,1
662,9.258865,0.028915405,-0.35964966,1
663,9.17746,-0.1590271,-0.20402527,1
664,9.172684,-0.14704895,-0.17887878,1
665,9.250488,-0.15423584,-0.14656067,1
666,9.2313385,-0.045303345,-0.09986877400000001,1
667,9.195419000000001,0.09475708,-0.049591064000000004,1
668,9.087677000000001,0.12348938,0.025817871000000003,1
669,9.046982,0.06602478,0.021026611,1
670,9.165497,-0.050079346,-0.03881836,1
671,9.3151245,-0.18536377,-0.17529297,1
672,9.321121,-0.21170044,-0.11543274,1
673,9.299576,-0.21409607,-0.073532104,1
674,9.292389,-0.27514648,-0.15254211,1
675,9.267242,-0.29190063,-0.20881653,1
676,9.279221000000001,-0.26316833,-0.17289734,1
677,9.303162,-0.16619873,-0.18127441,1
678,9.205002,-0.08480835,-0.30577087,1
679,9.262466,-0.09916687,-0.19444275,1
680,9.269638,-0.08958435,-0.19923401,1
681,9.291183,-0.14585876,-0.15614319,1
682,9.236130000000001,-0.112335205,-0.17050171,1
683,9.248092999999999,-0.081207275,-0.14537048,1
684,9.245697,-0.08001709,-0.22317505,1
685,9.266052,-0.13388062,-0.25309753,1
686,9.236130000000001,-0.14465332,-0.32373047,1
687,9.263657,-0.102752686,-0.43865967,1
688,9.312744,-0.08001709,-0.48773193,1
689,9.220566,-0.066848755,-0.45899963,1
690,9.203796,-0.064453125,-0.41351318,1
691,9.175064,-0.09437561,-0.41590879999999997,1
692,9.185837,-0.10874939,-0.35604858,1
693,9.260071,-0.14346313,-0.41949463,1
694,9.3941345,-0.16500854,-0.5727234,1
695,9.427658000000001,-0.24401855,-0.70440674,1
696,9.3893585,-0.31704712,-0.69363403,1
697,9.408508,-0.3074646,-0.5942688,1
698,9.329498,-0.21170044,-0.5619506999999999,1
699,9.200211,-0.17219543,-0.49850464,1
700,9.108032000000001,-0.12550354,-0.51885986,1
701,9.100845,-0.14225769,-0.52963257,1
702,9.164291,-0.14825439999999998,-0.6266022,1
703,9.280411,-0.105148315,-0.67807007,1
704,9.410903999999999,-0.124313354,-0.60505676,1
705,9.39653,-0.12310791,-0.79299927,1
706,9.25647,-0.19493103,-0.75349426,1
707,9.203796,-0.15303039999999998,-0.70680237,1
708,9.232529,-0.081207275,-0.7343445,1
709,9.285202,-0.11352539,-0.7103881999999999,1
710,9.37738,-0.15303039999999998,-0.63856506,1
711,9.369003,-0.0440979,-0.7391205,1
712,9.222961,-0.071640015,-1.0826874,1
713,9.23732,-0.18176270000000003,-1.1114197000000001,1
714,9.2313385,-0.24880981,-1.0431824,1
715,9.190628,-0.17578125,-0.9737549000000001,1
716,9.130783000000001,-0.00340271,-1.0527649,1
717,9.157119999999999,0.03012085,-1.1772614,1
718,9.232529,0.107925415,-1.2227478,1
719,9.330688,0.057647705,-1.0372009,1
720,9.357025,-0.040512085,-0.98812866,1
721,9.285202,-0.20570374,-0.84088135,1
722,9.136764999999999,-0.38168335,-0.6876526,1
723,9.243300999999999,-0.32781982,-0.6218109,1
724,9.311539,-0.3768921,-0.48054504,1
725,9.272034,-0.45829773,-0.39794922,1
726,9.273239,-0.48703003,-0.372818,1
727,9.31752,-0.45350647,-0.45899963,1
728,9.282805999999999,-0.3589325,-0.48533630000000005,1
729,9.293579,-0.3589325,-0.5571594,1
730,9.252884,-0.1877594,-0.6553345,1
731,9.225342,-0.1015625,-0.6409607,1
732,9.311539,-0.06803894,-0.7451171999999999,1
733,9.306747,-0.10874939,-0.8899536,1
734,9.289992999999999,-0.1015625,-0.81573486,1
735,9.249298,-0.083602905,-0.8145446999999999,1
736,9.182250999999999,-0.033325195,-0.6948395,1
737,9.208588,-0.030929565,-0.67567444,1
738,9.264847,-0.026138306,-0.62060547,1
739,9.242111,-0.011779785,-0.6182251,1
740,9.275619500000001,-0.035720825,-0.6661071999999999,1
741,9.249298,-0.13269043,-0.6182251,1
742,9.239716,-0.24401855,-0.5607605,1
743,9.325911999999999,-0.32661438,-0.5428009,1
744,9.303162,-0.31584167,-0.51646423,1
745,9.294785000000001,-0.37928772,-0.4350585999999999,1
746,9.280411,-0.48942566,-0.37998962,1
747,9.195419000000001,-0.5540619000000001,-0.37998962,1
748,9.173874,-0.50857544,-0.3548584,1
749,9.321121,-0.37928772,-0.3548584,1
750,9.3546295,-0.33499146,-0.34169006,1
751,9.408508,-0.28352356,-0.36802673,1
752,9.39653,-0.13269043,-0.66729736,1
753,9.240905999999999,-0.07762146,-0.7127838000000001,1
754,9.090073,0.08758545,-0.49371338,1
755,9.215775,0.12469482400000001,-0.2794342,1
756,9.325911999999999,-0.13029480000000002,-0.04840088,1
757,9.3103485,-0.52653503,-0.0041046143,1
758,9.175064,-0.6438446,-0.05319214,1
759,9.149933,-0.45471190000000006,-0.09269714,1
760,9.207397,-0.42477417,-0.3440857,1
761,9.248092999999999,-0.41281128,-0.15733337,1
762,9.239716,-0.4487152,-0.056777954000000005,1
763,9.330688,-0.42237854,-0.026855469,1
764,9.403717,-0.36253357,-0.080718994,1
765,9.477936,-0.29908752,-0.16931152,1
766,9.421677,-0.23803711,-0.37998962,1
767,9.166687,-0.14465332,-0.44224548,1
768,8.933258,-0.014175415,-0.27464294,1
769,9.148727000000001,-0.021362305,0.050964355,1
770,9.509064,-0.14346313,-0.06515503,1
771,9.499481,-0.28831482,-0.34048462,1
772,9.222961,-0.23564148,-0.33091736,1
773,9.0182495,-0.064453125,-0.19204712,1
774,9.220566,-0.07522583,-0.071136475,1
775,9.382172,-0.21768188,-0.07952881,1
776,9.363022,-0.36372375,-0.035232544,1
777,9.230133,-0.34576416,-0.04360962,1
778,9.169083,-0.32302856,-0.056777954000000005,1
779,9.213379,-0.25,-0.097473145,1
780,9.245697,-0.23922729999999998,-0.09509277,1
781,9.222961,-0.27035522,-0.016082764,1
782,9.347458,-0.38407898,-0.09269714,1
783,9.325911999999999,-0.35295105,-0.06994629,1
784,9.245697,-0.34217834,-0.11064148,1
785,9.147537,-0.43914795,-0.080718994,1
786,9.197815,-0.56962585,0.09764099,1
787,9.25647,-0.5528717,0.17306519,1
788,9.329498,-0.43675232,-0.03642273,1
789,9.400131,-0.35176086,-0.19802856,1
790,9.467163000000001,-0.16381836,-0.2111969,1
791,9.37738,0.079193115,-0.21958923,1
792,9.264847,-0.026138306,-0.18486023,1
793,9.299576,-0.3469696,-0.22077942,1
794,9.301956,-0.46788025,-0.23275757,1
795,9.301956,-0.41281128,-0.17408752,1
796,9.303162,-0.29190063,-0.23275757,1
797,9.282805999999999,-0.18296814,-0.36682129999999996,1
798,9.307953,-0.117126465,-0.45541382,1
799,9.267242,-0.062057495,-0.5332184,1
800,9.274429,-0.02494812,-0.58470154,1
801,9.25528,0.012161255,-0.5894928,1
802,9.201400999999999,0.0181427,-0.56674194,1
803,9.123596000000001,-0.07043457,-0.54519653,1
804,9.074508999999999,-0.112335205,-0.4446411,1
805,9.159514999999999,-0.13148499,-0.37042236,1
806,9.240905999999999,-0.1015625,-0.38598633,1
807,9.402527000000001,-0.09677124,-0.5344238,1
808,9.527023,-0.15782166,-0.8456726000000001,1
809,9.321121,-0.20690918,-0.9462280000000001,1
810,9.33548,-0.21289063,-0.9294585999999999,1
811,9.251678,-0.17459106,-0.81573486,1
812,9.152328500000001,-0.107543945,-0.61343384,1
813,9.244507,-0.08480835,-0.6337738,1
814,9.328292999999999,-0.13148499,-0.6984253,1
815,9.3546295,-0.29908752,-0.6708831999999999,1
816,9.430054,-0.35653687,-0.6433563,1
817,9.251678,-0.39006042,-0.46260070000000003,1
818,9.160706,-0.16859436,-0.18965149,1
819,9.151123,-0.11114502,-0.2507019,1
820,9.146347,-0.16381836,-0.42070007,1
821,9.173874,-0.14585876,-0.5332184,1
822,9.187042,-0.16381836,-0.5691376,1
823,9.266052,-0.11352539,-0.5571594,1
824,9.276825,-0.05847168,-0.7403259,1
825,9.281616,-0.0440979,-0.79299927,1
826,9.3701935,-0.18655396,-0.6505432,1
827,9.371399,-0.28352356,-0.614624,1
828,9.257675,-0.32302856,-0.590683,1
829,9.152328500000001,-0.32661438,-0.48654175,1
830,9.218169999999999,-0.41760254,-0.3153534,1
831,9.33548,-0.3541565,-0.32254028,1
832,9.37619,-0.25958252,-0.22198486,1
833,9.268448,-0.18536377,-0.08430481,1
834,9.161896,-0.12071228,-0.025650024,1
835,9.21936,-0.06086731,-0.08670044,1
836,9.254074000000001,0.012161255,-0.31654358,1
837,9.214569000000001,-0.030929565,-0.37521362,1
838,9.230133,-0.14225769,-0.5236510999999999,1
839,9.230133,-0.25360107,-0.6086425999999999,1
840,9.248092999999999,-0.39604187,-0.5691376,1
841,9.25647,-0.5037842,-0.6337738,1
842,9.240905999999999,-0.5504760999999999,-0.75468445,1
843,9.195419000000001,-0.50138855,-0.7846221999999999,1
844,9.206192,-0.32900999999999997,-0.8755951,1
845,9.131973,-0.26795959999999996,-0.8001709,1
846,9.215775,-0.27754209999999996,-0.5679474,1
847,9.275619500000001,-0.31344604,-0.51527405,1
848,9.342667,-0.50019836,-0.45420837,1
849,9.292389,-0.542099,-0.45062256,1
850,9.292389,-0.6414489999999999,-0.4530182,1
851,9.313934,-0.6761626999999999,-0.7391205,1
852,9.383362,-0.70729065,-0.96058655,1
853,9.366608,-0.6869506999999999,-1.0156555,1
854,9.268448,-0.58639526,-0.94862366,1
855,9.234924000000001,-0.49421692,-0.9450226,1
856,9.263657,-0.4774475,-1.1461333999999999,1
857,9.286407,-0.5432892,-1.2203674,1
858,9.312744,-0.5217438,-1.2754211000000002,1
859,9.262466,-0.4343567,-1.2634583000000001,1
860,9.208588,-0.2966919,-1.1868439,1
861,9.173874,-0.22605896,-1.2024078,1
862,9.194229,-0.20451355,-1.1664886,1
863,9.195419000000001,-0.20330810000000002,-1.0216370000000001,1
864,9.246902,-0.21289063,-0.93066406,1
865,9.226547,-0.14585876,-0.8181305,1
866,9.206192,-0.112335205,-0.7846221999999999,1
867,9.239716,-0.050079346,-0.80137634,1
868,9.263657,-0.066848755,-0.86361694,1
869,9.285202,-0.081207275,-0.8935546999999998,1
870,9.21936,-0.13269043,-0.97735596,1
871,9.110428,-0.19732666,-0.93904114,1
872,9.232529,-0.21528625,-0.8720093000000001,1
873,9.267242,-0.2320404,-1.1066284,1
874,9.29837,-0.30986023,-1.1497344999999999,1
875,9.225342,-0.3589325,-1.0455780000000001,1
876,9.213379,-0.40802002,-0.9043273999999999,1
877,9.248092999999999,-0.36132813,-0.91389465,1
878,9.221756,-0.34217834,-0.97135925,1
879,9.242111,-0.36372375,-0.9581909,1
880,9.248092999999999,-0.37210083,-0.9546051,1
881,9.251678,-0.34936523,-0.9976959000000001,1
882,9.275619500000001,-0.28352356,-0.91989136,1
883,9.268448,-0.30267334,-0.88157654,1
884,9.23732,-0.30506897,-0.8372803,1
885,9.185837,-0.26316833,-0.8061676,1
886,9.17746,-0.32302856,-0.79418945,1
887,9.182250999999999,-0.33140564,-0.8396759,1
888,9.197815,-0.3182373,-0.8001709,1
889,9.21936,-0.33021545,-0.843277,1
890,9.293579,-0.2715454,-0.88038635,1
891,9.3103485,-0.22726439999999998,-0.94262695,1
892,9.29718,-0.17338562,-0.8851776,1
893,9.17746,-0.13029480000000002,-0.91030884,1
894,9.148727000000001,-0.124313354,-0.8947449000000001,1
895,9.225342,-0.2212677,-0.9354553,1
896,9.303162,-0.33499146,-1.0443878,1
897,9.305557,-0.36132813,-0.9761504999999999,1
898,9.218169999999999,-0.26556396,-0.9629822,1
899,9.252884,-0.2212677,-0.97854614,1
900,9.218169999999999,-0.16142273,-1.0192413,1
901,9.216965,-0.17698670000000002,-0.93785095,1
902,9.220566,-0.17698670000000002,-0.97854614,1
903,9.212173,-0.24641418,-1.0814972,1
904,9.25647,-0.32781982,-1.0204468,1
905,9.268448,-0.35774229999999996,-1.0000916,1
906,9.263657,-0.36372375,-0.9450226,1
907,9.207397,-0.29788208,-0.88157654,1
908,9.189438,-0.23803711,-0.8504485999999999,1
909,9.17627,-0.27514648,-0.96777344,1
910,9.202606,-0.27275085,-0.97854614,1
911,9.226547,-0.29908752,-1.0491791000000001,1
912,9.3498535,-0.30387878,-1.0826874,1
913,9.318726,-0.23324585,-1.1545258,1
914,9.205002,-0.22964478,-1.2215576000000001,1
915,9.133179,-0.25120544,-1.2095795,1
916,9.196625,-0.36013794,-1.1928253,1
917,9.233734,-0.41879272,-1.2263488999999999,1
918,9.225342,-0.42118835,-1.3089447,1
919,9.214569000000001,-0.38526917,-1.3328857,1
920,9.254074000000001,-0.33259583,-1.2885895,1
921,9.23732,-0.26437378,-1.2383118,1
922,9.251678,-0.20330810000000002,-1.2383118,1
923,9.234924000000001,-0.19493103,-1.2490845,1
924,9.197815,-0.16740417,-1.2155761999999999,1
925,9.248092999999999,-0.24880981,-1.0934601000000002,1
926,9.234924000000001,-0.24043274,-1.1281891000000002,1
927,9.21936,-0.30625916,-1.1329651,1
928,9.181061,-0.23324585,-1.1461333999999999,1
929,9.207397,-0.078811646,-1.1197968,1
930,9.172684,0.09236145,-0.9653778000000001,1
931,9.212173,0.22883606,-0.9055175999999999,1
932,9.147537,0.29467773,-0.9522094999999999,1
933,9.149933,0.2922821,-0.8360901,1
934,9.075714,0.21087646,-0.6613159000000001,1
935,9.033813,0.08518982,-0.5392151,1
936,9.041,-0.11592102,-0.42668152,1
937,9.190628,-0.24401855,-0.5918884,1
938,9.210983,-0.3074646,-0.70321655,1
939,9.37619,-0.42716980000000004,-0.9043273999999999,1
940,9.276825,-0.35653687,-0.9653778000000001,1
941,9.167892,-0.35176086,-0.9869232,1
942,9.250488,-0.30865479999999995,-1.1616973999999998,1
943,9.31752,-0.3146515,-1.3520355,1
944,9.273239,-0.28471375,-1.4992828,1
945,9.246902,-0.31225586,-1.5735016000000002,1
946,9.212173,-0.27633667,-1.6070251,1
947,9.130783000000001,-0.26316833,-1.5663147,1
948,9.087677000000001,-0.21887207,-1.5363921999999999,1
949,9.064941000000001,-0.20211792,-1.5399933000000001,1
950,9.115219,-0.25598145,-1.4909058000000002,1
951,9.122391,-0.23443604,-1.5411834999999998,1
952,9.307953,-0.26197815,-1.6537169999999999,1
953,9.382172,-0.32781982,-1.7674408,1
954,9.340271000000001,-0.40083313,-1.7782135,1
955,9.282805999999999,-0.45111084,-1.697998,1
956,9.102051,-0.44992065,-1.535202,1
957,9.031417999999999,-0.40322876,-1.5196381,1
958,9.125992,-0.40083313,-1.5866699,1
959,9.067337,-0.3649292,-1.6118164,1
960,9.104446000000001,-0.30865479999999995,-1.5866699,1
961,9.227737,-0.29309082,-1.7482758000000003,1
962,9.249298,-0.24162292,-1.7937775000000002,1
963,9.149933,-0.19972229,-1.729126,1
964,9.171478,-0.15303039999999998,-1.6441345,1
965,9.178664999999999,-0.18057251,-1.5914612,1
966,9.091277999999999,-0.14465332,-1.6465302,1
967,9.075714,-0.09916687,-1.6453247,1
968,9.093674,-0.08001709,-1.6393433000000002,1
969,9.093674,-0.090789795,-1.6908264,1
970,9.14035,-0.09197998,-1.7638397000000001,1
971,9.167892,-0.078811646,-1.7375029999999998,1
972,9.196625,-0.15184021,-1.7638397000000001,1
973,9.136764999999999,-0.13029480000000002,-1.7638397000000001,1
974,9.108032000000001,-0.17338562,-1.7434998,1
975,9.106842,-0.21647644,-1.7566681,1
976,9.128387,-0.19732666,-1.7398987000000001,1
977,9.147537,-0.21528625,-1.7710266,1
978,9.166687,-0.21768188,-1.784195,1
979,9.169083,-0.24401855,-1.7111664,1
980,9.133179,-0.25479126,-1.7243346999999998,1
981,9.141556,-0.21768188,-1.6166076999999999,1
982,9.096069,-0.19972229,-1.6489258000000002,1
983,9.0793,-0.21289063,-1.6465302,1
984,9.137955,-0.26675415,-1.6956023999999998,1
985,9.182250999999999,-0.24162292,-1.7159576,1
986,9.175064,-0.20570374,-1.7039948,1
987,9.171478,-0.21528625,-1.6824341,1
988,9.131973,-0.16142273,-1.6908264,1
989,9.100845,-0.1925354,-1.6752625,1
990,9.12001,-0.17936707,-1.6848296999999999,1
991,9.110428,-0.17098999,-1.6130066,1
992,9.178664999999999,-0.16142273,-1.7207488999999998,1
993,9.090073,-0.16619873,-1.8356628000000001,1
994,9.115219,-0.1925354,-1.753067,1
995,9.133179,-0.20451355,-1.7099761999999998,1
996,9.183456,-0.21289063,-1.6728668000000002,1
997,9.161896,-0.22007751,-1.6525116000000002,1
998,9.099655,-0.22726439999999998,-1.6656799,1
999,9.0972595,-0.18415833,-1.7159576,1
1000,9.111618,-0.21409607,-1.7398987000000001,1
1001,9.128387,-0.19613647,-1.7375029999999998,1
1002,9.147537,-0.23443604,-1.7626495,1
1003,9.173874,-0.20930481,-1.7351074,1
1004,9.170288000000001,-0.22366333,-1.7674408,1
1005,9.153519000000001,-0.20570374,-1.7554626,1
1006,9.12001,-0.26197815,-1.7458801,1
1007,9.125992,-0.26437378,-1.7147675,1
1008,9.134369,-0.2859192,-1.7243346999999998,1
1009,9.149933,-0.28352356,-1.6992035,1
1010,9.131973,-0.23085022,-1.7470856,1
1011,9.130783000000001,-0.27633667,-1.7111664,1
1012,9.124786,-0.25598145,-1.6836395,1
1013,9.123596000000001,-0.25360107,-1.6992035,1
1014,9.118805,-0.25239563,-1.6968078999999998,1
1015,9.1128235,-0.20330810000000002,-1.6812439,1
1016,9.123596000000001,-0.19972229,-1.6656799,1
1017,9.133179,-0.20211792,-1.7135619999999998,1
1018,9.129578,-0.19374084,-1.6992035,1
1019,9.121201,-0.20211792,-1.6692657,1
1020,9.143951,-0.19972229,-1.6417389,1
1021,9.146347,-0.20930481,-1.7590485,1
1022,9.130783000000001,-0.20930481,-1.674057,1
1023,9.165497,-0.21528625,-1.6082153000000001,1
1024,9.117614999999999,-0.16979979999999997,-1.7554626,1
1025,9.106842,-0.22964478,-1.6932220000000002,1
1026,9.122391,-0.21528625,-1.6297760000000001,1
1027,9.142746,-0.23324585,-1.650116,1
1028,9.153519000000001,-0.23564148,-1.5890656,1
1029,9.167892,-0.26437378,-1.6082153000000001,1
1030,9.111618,-0.23564148,-1.5842743000000001,1
1031,9.151123,-0.21647644,-1.6249847,1
1032,9.096069,-0.19374084,-1.6596985,1
1033,9.135558999999999,-0.17219543,-1.6465302,1
1034,9.141556,-0.22726439999999998,-1.6644897,1
1035,9.202606,-0.17936707,-1.7039948,1
1036,9.147537,-0.1925354,-1.7027893,1
1037,9.160706,-0.18057251,-1.7075806,1
1038,9.127182000000001,-0.19374084,-1.6620941000000002,1
1039,9.090073,-0.19013977,-1.650116,1
1040,9.141556,-0.21768188,-1.6836395,1
1041,9.142746,-0.18655396,-1.6309662,1
1042,9.146347,-0.20690918,-1.6261749,1
1043,9.154724,-0.2212677,-1.658493,1
1044,9.152328500000001,-0.21647644,-1.6560974,1
1045,9.137955,-0.20690918,-1.6860351999999998,1
1046,9.160706,-0.21289063,-1.6860351999999998,1
1047,9.137955,-0.19134521,-1.6489258000000002,1
1048,9.131973,-0.210495,-1.6776581000000002,1
1049,9.13916,-0.21409607,-1.6644897,1
1050,9.111618,-0.2212677,-1.6273803999999998,1
1051,9.142746,-0.20809937,-1.6525116000000002,1
1052,9.193024000000001,-0.22366333,-1.6944122,1
1053,9.092467999999998,-0.20330810000000002,-1.650116,1
1054,9.185837,-0.22726439999999998,-1.6010437,1
1055,9.123596000000001,-0.18894958,-1.7722168000000003,1
1056,9.148727000000001,-0.21170044,-1.6764526000000002,1
1057,9.117614999999999,-0.19613647,-1.6309662,1
1058,9.146347,-0.23324585,-1.6046295,1
1059,9.167892,-0.22486877,-1.6166076999999999,1
1060,9.143951,-0.23443604,-1.6213837,1
1061,9.116408999999999,-0.20451355,-1.6836395,1
1062,9.134369,-0.17338562,-1.6177979,1
1063,9.130783000000001,-0.16859436,-1.6644897,1
1064,9.147537,-0.13986206,-1.6776581000000002,1
1065,9.154724,-0.16740417,-1.6884308000000001,1
1066,9.17627,-0.16979979999999997,-1.6872253000000001,1
1067,9.134369,-0.16142273,-1.6321564,1
1068,9.124786,-0.17338562,-1.6560974,1
1069,9.130783000000001,-0.18296814,-1.6513214,1
1070,9.128387,-0.2212677,-1.6429291000000001,1
1071,9.118805,-0.18057251,-1.5830841,1
1072,9.143951,-0.18057251,-1.6453247,1
1073,9.163101,-0.20809937,-1.6573029,1
1074,9.151123,-0.18655396,-1.6620941000000002,1
1075,9.125992,-0.21289063,-1.6728668000000002,1
1076,9.155914,-0.17817688,-1.6788483,1
1077,9.159514999999999,-0.22845459,-1.6776581000000002,1
1078,9.146347,-0.20092773,-1.6560974,1
1079,9.167892,-0.21289063,-1.6405487,1
1080,9.131973,-0.20092773,-1.7015991000000001,1
1081,9.129578,-0.17698670000000002,-1.6525116000000002,1
1082,9.165497,-0.19732666,-1.6321564,1
1083,9.21936,-0.25,-1.6872253000000001,1
1084,9.125992,-0.20330810000000002,-1.6944122,1
1085,9.145142,-0.18536377,-1.5723114,1
1086,9.127182000000001,-0.17936707,-1.7183533,1
1087,9.116408999999999,-0.16500854,-1.6632843000000002,1
1088,9.093674,-0.20570374,-1.6237793,1
1089,9.151123,-0.20211792,-1.614212,1
1090,9.17627,-0.20451355,-1.571106,1
1091,9.133179,-0.17936707,-1.5603333000000001,1
1092,9.145142,-0.16500854,-1.614212,1
1093,9.136764999999999,-0.20451355,-1.6321564,1
1094,9.145142,-0.16619873,-1.6381531,1
1095,9.125992,-0.19493103,-1.6596985,1
1096,9.183456,-0.17698670000000002,-1.6704712,1
1097,9.182250999999999,-0.15542603,-1.7051849,1
1098,9.166687,-0.16859436,-1.6321564,1
1099,9.137955,-0.19134521,-1.6549072,1
1100,9.142746,-0.1877594,-1.6225891000000001,1
1101,9.146347,-0.19013977,-1.6549072,1
1102,9.161896,-0.20451355,-1.6166076999999999,1
1103,9.17746,-0.19493103,-1.5771027,1
1104,9.149933,-0.1590271,-1.6034393,1
1105,9.143951,-0.18894958,-1.5782928,1
1106,9.149933,-0.16500854,-1.6166076999999999,1
1107,9.137955,-0.16619873,-1.5950469999999999,1
1108,9.149933,-0.16740417,-1.6357574,1
1109,9.157119999999999,-0.17338562,-1.6393433000000002,1
1110,9.130783000000001,-0.21289063,-1.5878754,1
1111,9.143951,-0.16021729,-1.590271,1
1112,9.167892,-0.18057251,-1.6154022,1
1113,9.157119999999999,-0.17098999,-1.6537169999999999,1
1114,9.133179,-0.18176270000000003,-1.6034393,1
1115,9.114014,-0.16979979999999997,-1.6034393,1
1116,9.199005,-0.19732666,-1.6177979,1
1117,9.191833500000001,-0.20451355,-1.6381531,1
1118,9.111618,-0.17936707,-1.5124511999999999,1
1119,9.221756,-0.17459106,-1.5782928,1
1120,9.124786,-0.1590271,-1.7303313999999999,1
1121,9.14035,-0.19972229,-1.6441345,1
1122,9.142746,-0.1925354,-1.5771027,1
1123,9.160706,-0.21170044,-1.5447693,1
1124,9.17627,-0.18176270000000003,-1.531601,1
1125,9.122391,-0.20570374,-1.5459747,1
1126,9.134369,-0.20570374,-1.5782928,1
1127,9.137955,-0.18057251,-1.5830841,1
1128,9.148727000000001,-0.16261292,-1.6046295,1
1129,9.163101,-0.17459106,-1.610611,1
1130,9.21936,-0.20211792,-1.5878754,1
1131,9.166687,-0.17459106,-1.6249847,1
1132,9.146347,-0.18894958,-1.5890656,1
1133,9.129578,-0.18655396,-1.5735016000000002,1
1134,9.134369,-0.20690918,-1.5543518,1
1135,9.164291,-0.23443604,-1.5387878000000001,1
1136,9.164291,-0.20211792,-1.5172424,1
1137,9.178664999999999,-0.20330810000000002,-1.5028687,1
1138,9.181061,-0.19853210000000002,-1.5627289,1
1139,9.167892,-0.18536377,-1.5304108,1
1140,9.151123,-0.12789917,-1.5411834999999998,1
1141,9.159514999999999,-0.17219543,-1.511261,1
1142,9.157119999999999,-0.17698670000000002,-1.5304108,1
1143,9.175064,-0.19013977,-1.511261,1
1144,9.154724,-0.18415833,-1.5244293,1
1145,9.116408999999999,-0.18176270000000003,-1.4968872,1
1146,9.12001,-0.18057251,-1.4944916000000001,1
1147,9.167892,-0.17219543,-1.5244293,1
1148,9.161896,-0.18176270000000003,-1.5280151000000002,1
1149,9.169083,-0.19013977,-1.5184326000000001,1
1150,9.129578,-0.17219543,-1.5387878000000001,1
1151,9.159514999999999,-0.19013977,-1.555542,1
1152,9.14035,-0.1877594,-1.6010437,1
1153,9.166687,-0.19013977,-1.5842743000000001,1
1154,9.218169999999999,-0.19374084,-1.5723114,1
1155,9.222961,-0.2320404,-1.5842743000000001,1
1156,9.13916,-0.21647644,-1.5830841,1
1157,9.109222,-0.17698670000000002,-1.4609833,1
1158,9.248092999999999,-0.18176270000000003,-1.5914612,1
1159,9.07811,-0.21289063,-1.6728668000000002,1
1160,9.160706,-0.21409607,-1.5256195,1
1161,9.228943,-0.19732666,-1.4250641000000002,1
1162,9.171478,-0.210495,-1.4490051000000002,1
1163,9.135558999999999,-0.22964478,-1.4298553,1
1164,9.141556,-0.17459106,-1.4657593,1
1165,9.164291,-0.18655396,-1.5723114,1
1166,9.17746,-0.2212677,-1.5818787,1
1167,9.189438,-0.22247314,-1.6034393,1
1168,9.172684,-0.21768188,-1.5567474,1
1169,9.147537,-0.19613647,-1.5483704,1
1170,9.153519000000001,-0.16261292,-1.5675201,1
1171,9.12001,-0.20211792,-1.555542,1
1172,9.133179,-0.20690918,-1.550766,1
1173,9.154724,-0.210495,-1.5866699,1
1174,9.152328500000001,-0.20451355,-1.5459747,1
1175,9.218169999999999,-0.19613647,-1.5172424,1
1176,9.206192,-0.19972229,-1.5603333000000001,1
1177,9.175064,-0.16021729,-1.511261,1
1178,9.170288000000001,-0.19972229,-1.4681548999999998,1
1179,9.151123,-0.19732666,-1.452591,1
1180,9.160706,-0.15542603,-1.4310455,1
1181,9.161896,-0.19013977,-1.4657593,1
1182,9.181061,-0.18655396,-1.5016785,1
1183,9.221756,-0.2320404,-1.5986481000000001,1
1184,9.239716,-0.20690918,-1.6441345,1
1185,9.209793,-0.210495,-1.6417389,1
1186,9.178664999999999,-0.19134521,-1.6429291000000001,1
1187,9.193024000000001,-0.12071228,-1.5758972,1
1188,9.175064,-0.15065002,-1.5771027,1
1189,9.196625,-0.22366333,-1.614212,1
1190,9.102051,-0.21170044,-1.5495605,1
1191,9.159514999999999,-0.18057251,-1.4394226,1
1192,9.195419000000001,-0.1925354,-1.6333618,1
1193,9.09845,-0.23683167,-1.5603333000000001,1
1194,9.1128235,-0.23324585,-1.4238739,1
1195,9.227737,-0.21170044,-1.3556366000000002,1
1196,9.242111,-0.21528625,-1.3556366000000002,1
1197,9.21936,-0.21289063,-1.4059143,1
1198,9.218169999999999,-0.13388062,-1.3867645,1
1199,9.187042,-0.15782166,-1.3783722,1
1200,9.145142,-0.18057251,-1.3400726,1
1201,9.142746,-0.17338562,-1.2969818000000002,1
1202,9.201400999999999,-0.17936707,-1.2814178,1
1203,9.220566,-0.19374084,-1.2766266000000002,1
1204,9.216965,-0.16381836,-1.2897949,1
1205,9.171478,-0.17698670000000002,-1.2730255,1
1206,9.205002,-0.19853210000000002,-1.2335358,1
1207,9.209793,-0.19972229,-1.2167663999999998,1
1208,9.187042,-0.21170044,-1.2550812,1
1209,9.200211,-0.19613647,-1.2000122,1
1210,9.21936,-0.19374084,-1.1868439,1
1211,9.220566,-0.19374084,-1.2562714,1
1212,9.193024000000001,-0.19613647,-1.2251433999999999,1
1213,9.195419000000001,-0.19374084,-1.2155761999999999,1
1214,9.199005,-0.19613647,-1.1784668,1
1215,9.221756,-0.16979979999999997,-1.2634583000000001,1
1216,9.179855,-0.17338562,-1.2107849,1
1217,9.185837,-0.20930481,-1.2012024,1
1218,9.201400999999999,-0.19013977,-1.155716,1
1219,9.203796,-0.20690918,-1.2239532,1
1220,9.173874,-0.19493103,-1.1389618000000001,1
1221,9.263657,-0.18296814,-1.2059937,1
1222,9.14035,-0.17698670000000002,-1.3436583999999998,1
1223,9.163101,-0.20211792,-1.2454987,1
1224,9.179855,-0.20330810000000002,-1.2383118,1
1225,9.212173,-0.17817688,-1.179657,1
1226,9.209793,-0.22486877,-1.2131805,1
1227,9.130783000000001,-0.15303039999999998,-1.2670441000000001,1
1228,9.137955,-0.18655396,-1.1712798999999998,1
1229,9.173874,-0.18415833,-1.2083893,1
1230,9.157119999999999,-0.18894958,-1.2778167999999999,1
1231,9.216965,-0.16619873,-1.2933807,1
1232,9.264847,-0.21409607,-1.3364716,1
1233,9.319916000000001,-0.20690918,-1.3879546999999999,1
1234,9.307953,-0.18655396,-1.4214783000000002,1
1235,9.21936,-0.19374084,-1.353241,1
1236,9.190628,-0.1925354,-1.2969818000000002,1
1237,9.151123,-0.21170044,-1.3209229,1
1238,9.178664999999999,-0.20092773,-1.2873993000000001,1
1239,9.166687,-0.15782166,-1.2514801000000002,1
1240,9.189438,-0.18415833,-1.2993622,1
1241,9.202606,-0.17817688,-1.3544312,1
1242,9.213379,-0.15303039999999998,-1.3664093000000002,1
1243,9.179855,-0.17459106,-1.361618,1
1244,9.203796,-0.20451355,-1.3831635,1
1245,9.157119999999999,-0.210495,-1.3675995,1
1246,9.160706,-0.19013977,-1.3328857,1
1247,9.116408999999999,-0.15542603,-1.3316956,1
1248,9.189438,-0.18655396,-1.3759766000000002,1
1249,9.215775,-0.18296814,-1.4310455,1
1250,9.196625,-0.18296814,-1.4238739,1
1251,9.228943,-0.16381836,-1.4346466,1
1252,9.110428,-0.16740417,-1.5675201,1
1253,9.154724,-0.20451355,-1.4813232,1
1254,9.175064,-0.20330810000000002,-1.4154816000000001,1
1255,9.232529,-0.20690918,-1.3855591,1
1256,9.159514999999999,-0.15663147,-1.3891448999999998,1
1257,9.167892,-0.19134521,-1.4035187,1
1258,9.110428,-0.18415833,-1.4897003,1
1259,9.142746,-0.18176270000000003,-1.5256195,1
1260,9.145142,-0.20809937,-1.5040741000000002,1
1261,9.210983,-0.23803711,-1.4717559999999998,1
1262,9.230133,-0.19613647,-1.4944916000000001,1
1263,9.188232000000001,-0.18536377,-1.4944916000000001,1
1264,9.183456,-0.20809937,-1.5124511999999999,1
1265,9.163101,-0.22247314,-1.456192,1
1266,9.153519000000001,-0.19134521,-1.4633789,1
1267,9.184647,-0.20211792,-1.4250641000000002,1
1268,9.165497,-0.19732666,-1.4178772,1
1269,9.182250999999999,-0.22007751,-1.4154816000000001,1
1270,9.207397,-0.18894958,-1.4370421999999998,1
1271,9.193024000000001,-0.21409607,-1.4286499,1
1272,9.199005,-0.18894958,-1.3783722,1
1273,9.161896,-0.20211792,-1.3759766000000002,1
1274,9.187042,-0.15782166,-1.3795776000000002,1
1275,9.151123,-0.15065002,-1.3975372,1
1276,9.165497,-0.15303039999999998,-1.3723907,1
1277,9.2313385,-0.18057251,-1.3640136999999999,1
1278,9.184647,-0.16381836,-1.3999176000000002,1
1279,9.179855,-0.16381836,-1.3628082000000001,1
1280,9.239716,-0.15303039999999998,-1.4597778000000001,1
1281,9.153519000000001,-0.18655396,-1.4825287,1
1282,9.171478,-0.18415833,-1.4897003,1
1283,9.205002,-0.1877594,-1.4262542999999999,1
1284,9.199005,-0.18057251,-1.4071045,1
1285,9.175064,-0.21170044,-1.3879546999999999,1
1286,9.164291,-0.18176270000000003,-1.4202728,1
1287,9.187042,-0.17219543,-1.4142914,1
1288,9.159514999999999,-0.1877594,-1.4130858999999998,1
1289,9.161896,-0.16500854,-1.4573822,1
1290,9.202606,-0.16381836,-1.4502106000000001,1
1291,9.244507,-0.19134521,-1.4430237,1
1292,9.178664999999999,-0.18894958,-1.4238739,1
1293,9.135558999999999,-0.16381836,-1.3927459999999998,1
1294,9.148727000000001,-0.17219543,-1.3891448999999998,1
1295,9.183456,-0.17459106,-1.4178772,1
1296,9.173874,-0.17098999,-1.3975372,1
1297,9.195419000000001,-0.19853210000000002,-1.3867645,1
1298,9.214569000000001,-0.19613647,-1.4071045,1
1299,9.193024000000001,-0.17098999,-1.4286499,1
1300,9.17627,-0.18057251,-1.3927459999999998,1
1301,9.195419000000001,-0.19732666,-1.3819733,1
1302,9.218169999999999,-0.18176270000000003,-1.3987273999999998,1
1303,9.191833500000001,-0.19972229,-1.3975372,1
1304,9.183456,-0.17817688,-1.4118958000000001,1
1305,9.148727000000001,-0.19013977,-1.3640136999999999,1
1306,9.203796,-0.16142273,-1.440628,1
1307,9.155914,-0.17817688,-1.3759766000000002,1
1308,9.131973,-0.19613647,-1.337677,1
1309,9.258865,-0.17698670000000002,-1.3855591,1
1310,9.199005,-0.17338562,-1.4442138999999998,1
1311,9.170288000000001,-0.18536377,-1.4083099,1
1312,9.224152,-0.17578125,-1.3712006,1
1313,9.209793,-0.21289063,-1.3640136999999999,1
1314,9.181061,-0.20330810000000002,-1.3328857,1
1315,9.149933,-0.1590271,-1.3664093000000002,1
1316,9.157119999999999,-0.14704895,-1.3987273999999998,1
1317,9.154724,-0.17698670000000002,-1.4238739,1
1318,9.183456,-0.1877594,-1.4502106000000001,1
1319,9.218169999999999,-0.17338562,-1.3831635,1
1320,9.244507,-0.19013977,-1.440628,1
1321,9.214569000000001,-0.15663147,-1.4059143,1
1322,9.151123,-0.12550354,-1.3891448999999998,1
1323,9.163101,-0.17817688,-1.3843689,1
1324,9.17627,-0.17098999,-1.3652038999999998,1
1325,9.160706,-0.18415833,-1.3652038999999998,1
1326,9.190628,-0.17219543,-1.3197173999999998,1
1327,9.173874,-0.17219543,-1.3352814,1
1328,9.202606,-0.21409607,-1.3233032,1
1329,9.212173,-0.19732666,-1.4059143,1
1330,9.193024000000001,-0.19374084,-1.3783722,1
1331,9.182250999999999,-0.16859436,-1.4071045,1
1332,9.161896,-0.15542603,-1.3712006,1
1333,9.191833500000001,-0.22726439999999998,-1.3640136999999999,1
1334,9.164291,-0.19374084,-1.3520355,1
1335,9.173874,-0.17698670000000002,-1.3759766000000002,1
1336,9.185837,-0.19853210000000002,-1.3891448999999998,1
1337,9.208588,-0.18894958,-1.3879546999999999,1
1338,9.133179,-0.17338562,-1.3185272,1
1339,9.258865,-0.17817688,-1.3855591,1
1340,9.191833500000001,-0.22366333,-1.5663147,1
1341,9.166687,-0.2320404,-1.5232238999999999,1
1342,9.131973,-0.18894958,-1.3628082000000001,1
1343,9.193024000000001,-0.19732666,-1.3161316,1
1344,9.190628,-0.20092773,-1.3400726,1
1345,9.152328500000001,-0.19853210000000002,-1.3628082000000001,1
1346,9.188232000000001,-0.21887207,-1.3987273999999998,1
1347,9.199005,-0.14825439999999998,-1.3903503000000001,1
1348,9.193024000000001,-0.13148499,-1.3843689,1
1349,9.181061,-0.11831665,-1.3628082000000001,1
1350,9.200211,-0.12908936,-1.3496399,1
1351,9.221756,-0.13508606,-1.3723907,1
1352,9.154724,-0.11352539,-1.3436583999999998,1
1353,9.146347,-0.13867188,-1.3316956,1
1354,9.175064,-0.16619873,-1.3233032,1
1355,9.172684,-0.14825439999999998,-1.2981719999999999,1
1356,9.195419000000001,-0.15782166,-1.3053589,1
1357,9.190628,-0.12908936,-1.313736,1
1358,9.199005,-0.13986206,-1.3173218,1
1359,9.188232000000001,-0.13627625,-1.3484497,1
1360,9.195419000000001,-0.18057251,-1.3292999,1
1361,9.170288000000001,-0.16500854,-1.3412628,1
1362,9.189438,-0.15542603,-1.361618,1
1363,9.173874,-0.12908936,-1.3424683000000002,1
1364,9.187042,-0.14704895,-1.3640136999999999,1
1365,9.187042,-0.17219543,-1.3316956,1
1366,9.164291,-0.19013977,-1.353241,1
1367,9.224152,-0.17459106,-1.3652038999999998,1
1368,9.178664999999999,-0.1877594,-1.3915405,1
1369,9.212173,-0.19732666,-1.3640136999999999,1
1370,9.190628,-0.18057251,-1.3891448999999998,1
1371,9.155914,-0.17936707,-1.3005676000000002,1
1372,9.184647,-0.17098999,-1.3101501,1
1373,9.194229,-0.14106749999999998,-1.3173218,1
1374,9.123596000000001,-0.17817688,-1.2921906,1
1375,9.202606,-0.15663147,-1.2359161,1
1376,9.142746,-0.18296814,-1.3963318,1
1377,9.184647,-0.20092773,-1.337677,1
1378,9.206192,-0.19493103,-1.3352814,1
1379,9.233734,-0.20092773,-1.2969818000000002,1
1380,9.205002,-0.18536377,-1.2993622,1
1381,9.148727000000001,-0.16261292,-1.3245087,1
1382,9.149933,-0.13029480000000002,-1.3364716,1
1383,9.178664999999999,-0.12789917,-1.3915405,1
1384,9.181061,-0.17936707,-1.4597778000000001,1
1385,9.205002,-0.1925354,-1.4645691,1
1386,9.210983,-0.20451355,-1.4023132,1
1387,9.221756,-0.16381836,-1.4083099,1
1388,9.147537,-0.15782166,-1.3855591,1
1389,9.136764999999999,-0.16381836,-1.3688049,1
1390,9.173874,-0.17459106,-1.3723907,1
1391,9.175064,-0.18536377,-1.3819733,1
1392,9.188232000000001,-0.20211792,-1.3735962,1
1393,9.212173,-0.14944458,-1.3975372,1
1394,9.181061,-0.18655396,-1.4142914,1
1395,9.165497,-0.16021729,-1.4585876,1
1396,9.173874,-0.16619873,-1.440628,1
1397,9.145142,-0.1590271,-1.4358368000000001,1
1398,9.167892,-0.13748169,-1.4741516000000001,1
1399,9.143951,-0.17698670000000002,-1.4442138999999998,1
1400,9.166687,-0.17936707,-1.4394226,1
1401,9.159514999999999,-0.18536377,-1.4669647,1
1402,9.160706,-0.20809937,-1.4466094999999999,1
1403,9.163101,-0.17817688,-1.4537964,1
1404,9.213379,-0.17578125,-1.4657593,1
1405,9.199005,-0.18057251,-1.4657593,1
1406,9.12001,-0.1877594,-1.4633789,1
1407,9.199005,-0.19013977,-1.3556366000000002,1
1408,9.202606,-0.17698670000000002,-1.3556366000000002,1
1409,9.195419000000001,-0.17459106,-1.401123,1
1410,9.153519000000001,-0.15065002,-1.3652038999999998,1
1411,9.233734,-0.14585876,-1.4502106000000001,1
1412,9.123596000000001,-0.16021729,-1.5256195,1
1413,9.199005,-0.18296814,-1.3903503000000001,1
1414,9.233734,-0.17338562,-1.3400726,1
1415,9.201400999999999,-0.1877594,-1.3484497,1
1416,9.170288000000001,-0.14825439999999998,-1.3089447,1
1417,9.130783000000001,-0.121917725,-1.3675995,1
1418,9.135558999999999,-0.13986206,-1.3472594999999998,1
1419,9.131973,-0.14106749999999998,-1.3472594999999998,1
1420,9.181061,-0.1590271,-1.4370421999999998,1
1421,9.188232000000001,-0.16619873,-1.4047089,1
1422,9.224152,-0.16021729,-1.4262542999999999,1
1423,9.182250999999999,-0.19134521,-1.3987273999999998,1
1424,9.159514999999999,-0.17219543,-1.4238739,1
1425,9.137955,-0.2212677,-1.3795776000000002,1
1426,9.159514999999999,-0.210495,-1.3807677999999999,1
1427,9.169083,-0.22605896,-1.3783722,1
1428,9.172684,-0.16859436,-1.3448639,1
1429,9.207397,-0.2212677,-1.3496399,1
1430,9.206192,-0.22726439999999998,-1.3783722,1
1431,9.182250999999999,-0.20690918,-1.3484497,1
1432,9.184647,-0.17578125,-1.3903503000000001,1
1433,9.172684,-0.19374084,-1.3604279,1
1434,9.15831,-0.17578125,-1.401123,1
1435,9.179855,-0.16979979999999997,-1.3843689,1
1436,9.189438,-0.17098999,-1.4107056,1
1437,9.224152,-0.20451355,-1.3664093000000002,1
1438,9.178664999999999,-0.19374084,-1.4107056,1
1439,9.190628,-0.18296814,-1.3939362,1
1440,9.163101,-0.16859436,-1.3652038999999998,1
1441,9.185837,-0.15782166,-1.3400726,1
1442,9.23732,-0.20690918,-1.4059143,1
1443,9.136764999999999,-0.17817688,-1.3783722,1
1444,9.17746,-0.14825439999999998,-1.2993622,1
1445,9.242111,-0.14106749999999998,-1.4083099,1
1446,9.149933,-0.18415833,-1.5172424,1
1447,9.148727000000001,-0.19853210000000002,-1.4023132,1
1448,9.209793,-0.18176270000000003,-1.3328857,1
1449,9.225342,-0.19613647,-1.3316956,1
1450,9.201400999999999,-0.20330810000000002,-1.3436583999999998,1
1451,9.154724,-0.19134521,-1.3556366000000002,1
1452,9.171478,-0.16021729,-1.3664093000000002,1
1453,9.153519000000001,-0.15303039999999998,-1.3795776000000002,1
1454,9.17627,-0.18057251,-1.4083099,1
1455,9.201400999999999,-0.17338562,-1.3640136999999999,1
1456,9.275619500000001,-0.19493103,-1.3269043,1
1457,9.228943,-0.16859436,-1.3340912,1
1458,9.15831,-0.16142273,-1.3041534,1
1459,9.136764999999999,-0.16979979999999997,-1.3053589,1
1460,9.136764999999999,-0.15184021,-1.3747863999999999,1
1461,9.159514999999999,-0.19013977,-1.4059143,1
1462,9.201400999999999,-0.17459106,-1.4142914,1
1463,9.23851,-0.19853210000000002,-1.4286499,1
1464,9.196625,-0.18536377,-1.4035187,1
1465,9.175064,-0.17698670000000002,-1.4346466,1
1466,9.157119999999999,-0.19493103,-1.3879546999999999,1
1467,9.145142,-0.14825439999999998,-1.3891448999999998,1
1468,9.157119999999999,-0.18415833,-1.3939362,1
1469,9.160706,-0.21887207,-1.3927459999999998,1
1470,9.187042,-0.22486877,-1.3915405,1
1471,9.207397,-0.17578125,-1.4083099,1
1472,9.21936,-0.17578125,-1.401123,1
1473,9.179855,-0.17459106,-1.3688049,1
1474,9.182250999999999,-0.15782166,-1.3340912,1
1475,9.185837,-0.18415833,-1.3496399,1
1476,9.227737,-0.18057251,-1.377182,1
1477,9.111618,-0.1590271,-1.337677,1
1478,9.205002,-0.18536377,-1.3005676000000002,1
1479,9.226547,-0.20092773,-1.4789276000000002,1
1480,9.203796,-0.23803711,-1.4454193000000002,1
1481,9.213379,-0.21409607,-1.3484497,1
1482,9.194229,-0.22726439999999998,-1.3125305,1
1483,9.188232000000001,-0.17578125,-1.2658539,1
1484,9.111618,-0.16740417,-1.3125305,1
1485,9.116408999999999,-0.17098999,-1.3664093000000002,1
1486,9.189438,-0.18894958,-1.3951416,1
1487,9.225342,-0.1877594,-1.4142914,1
1488,9.232529,-0.16859436,-1.4394226,1
1489,9.209793,-0.19853210000000002,-1.3628082000000001,1
1490,9.189438,-0.16619873,-1.3077545,1
1491,9.160706,-0.18894958,-1.3161316,1
1492,9.133179,-0.16740417,-1.3628082000000001,1
1493,9.163101,-0.1877594,-1.4202728,1
1494,9.194229,-0.20809937,-1.4813232,1
1495,9.195419000000001,-0.24281311,-1.4681548999999998,1
1496,9.199005,-0.18415833,-1.3592224,1
1497,9.213379,-0.19972229,-1.3927459999999998,1
1498,9.195419000000001,-0.15542603,-1.3927459999999998,1
1499,9.167892,-0.1590271,-1.3903503000000001,1
1500,9.183456,-0.18536377,-1.4226685,1
1501,9.187042,-0.20451355,-1.4609833,1
1502,9.182250999999999,-0.20690918,-1.4717559999999998,1
1503,9.191833500000001,-0.19972229,-1.4047089,1
1504,9.157119999999999,-0.20570374,-1.3939362,1
1505,9.147537,-0.21528625,-1.3795776000000002,1
1506,9.167892,-0.16021729,-1.3592224,1
1507,9.261261,-0.17936707,-1.3795776000000002,1
1508,9.268448,-0.20092773,-1.4250641000000002,1
1509,9.167892,-0.13867188,-1.3328857,1
1510,9.188232000000001,-0.15065002,-1.2622528,1
1511,9.127182000000001,-0.16500854,-1.4071045,1
1512,9.114014,-0.18536377,-1.361618,1
1513,9.124786,-0.16979979999999997,-1.2371216,1
1514,9.197815,-0.20809937,-1.1664886,1
1515,9.262466,-0.1925354,-1.1676941,1
1516,9.205002,-0.20330810000000002,-1.2634583000000001,1
1517,9.172684,-0.21170044,-1.2838135,1
1518,9.171478,-0.20930481,-1.2634583000000001,1
1519,9.167892,-0.22605896,-1.2850037,1
1520,9.183456,-0.18057251,-1.2718353,1
1521,9.221756,-0.20330810000000002,-1.2778167999999999,1
1522,9.226547,-0.19732666,-1.2526855,1
1523,9.268448,-0.22605896,-1.2945862,1
1524,9.108032000000001,-0.20330810000000002,-1.2706451,1
1525,9.161896,-0.19972229,-1.2646483999999998,1
1526,9.203796,-0.19972229,-1.2730255,1
1527,9.206192,-0.26197815,-1.2610626,1
1528,9.226547,-0.22726439999999998,-1.2574768,1
1529,9.188232000000001,-0.20930481,-1.2574768,1
1530,9.221756,-0.19613647,-1.2814178,1
1531,9.194229,-0.19613647,-1.282608,1
1532,9.173874,-0.16859436,-1.2562714,1
1533,9.203796,-0.19853210000000002,-1.2502898999999998,1
1534,9.189438,-0.20690918,-1.3017578,1
1535,9.170288000000001,-0.19732666,-1.2945862,1
1536,9.181061,-0.21887207,-1.2610626,1
1537,9.202606,-0.19013977,-1.258667,1
1538,9.185837,-0.18536377,-1.2957763999999998,1
1539,9.147537,-0.16619873,-1.2598572000000001,1
1540,9.272034,-0.16619873,-1.2909851,1
1541,9.218169999999999,-0.19374084,-1.4178772,1
1542,9.175064,-0.17098999,-1.3819733,1
1543,9.182250999999999,-0.15542603,-1.2694397,1
1544,9.187042,-0.21170044,-1.2778167999999999,1
1545,9.194229,-0.16979979999999997,-1.2395171999999999,1
1546,9.173874,-0.15542603,-1.2766266000000002,1
1547,9.163101,-0.13148499,-1.2622528,1
1548,9.160706,-0.19732666,-1.2598572000000001,1
1549,9.207397,-0.14346313,-1.2802124,1
1550,9.221756,-0.22007751,-1.3065491000000002,1
1551,9.23851,-0.22247314,-1.2969818000000002,1
1552,9.216965,-0.21647644,-1.3173218,1
1553,9.200211,-0.18296814,-1.3939362,1
1554,9.159514999999999,-0.19374084,-1.3328857,1
1555,9.216965,-0.19613647,-1.3460541000000001,1
1556,9.184647,-0.1877594,-1.3364716,1
1557,9.189438,-0.21768188,-1.3197173999999998,1
1558,9.166687,-0.1925354,-1.3280945,1
1559,9.190628,-0.18536377,-1.3125305,1
1560,9.218169999999999,-0.21528625,-1.353241,1
1561,9.196625,-0.18894958,-1.3855591,1
1562,9.205002,-0.23324585,-1.3652038999999998,1
1563,9.196625,-0.21647644,-1.3245087,1
1564,9.159514999999999,-0.210495,-1.3496399,1
1565,9.171478,-0.18536377,-1.3508453,1
1566,9.225342,-0.19134521,-1.3448639,1
1567,9.191833500000001,-0.16500854,-1.3065491000000002,1
1568,9.193024000000001,-0.20570374,-1.3256989,1
1569,9.143951,-0.16021729,-1.3508453,1
1570,9.17746,-0.21170044,-1.3280945,1
1571,9.194229,-0.18415833,-1.3747863999999999,1
1572,9.173874,-0.20930481,-1.3640136999999999,1
1573,9.224152,-0.19853210000000002,-1.3436583999999998,1
1574,9.155914,-0.17817688,-1.4573822,1
1575,9.153519000000001,-0.20930481,-1.4573822,1
1576,9.17627,-0.19134521,-1.3927459999999998,1
1577,9.207397,-0.19613647,-1.3269043,1
1578,9.188232000000001,-0.1877594,-1.3400726,1
1579,9.163101,-0.19853210000000002,-1.3951416,1
1580,9.135558999999999,-0.1925354,-1.4059143,1
1581,9.154724,-0.20809937,-1.4573822,1
1582,9.191833500000001,-0.22605896,-1.516037,1
1583,9.196625,-0.21887207,-1.5052643,1
1584,9.216965,-0.20330810000000002,-1.4885101,1
1585,9.194229,-0.20930481,-1.4753418,1
1586,9.188232000000001,-0.16021729,-1.4334412,1
1587,9.166687,-0.16619873,-1.3855591,1
1588,9.161896,-0.15782166,-1.3699951000000001,1
1589,9.160706,-0.15782166,-1.3340912,1
1590,9.160706,-0.17459106,-1.2670441000000001,1
1591,9.234924000000001,-0.23683167,-1.2371216,1
1592,9.246902,-0.24520874,-1.2694397,1
1593,9.185837,-0.20211792,-1.2778167999999999,1
1594,9.129578,-0.17459106,-1.2323302999999999,1
1595,9.212173,-0.1877594,-1.2371216,1
1596,9.213379,-0.23922729999999998,-1.2538757,1
1597,9.191833500000001,-0.25,-1.2215576000000001,1
1598,9.202606,-0.2212677,-1.2311401000000002,1
1599,9.190628,-0.25239563,-1.2706451,1
1600,9.191833500000001,-0.21887207,-1.2993622,1
1601,9.154724,-0.20092773,-1.3077545,1
1602,9.232529,-0.23683167,-1.2802124,1
1603,9.225342,-0.25360107,-1.3161316,1
1604,9.252884,-0.24162292,-1.3245087,1
1605,9.337875,-0.22247314,-1.3185272,1
1606,9.252884,-0.18894958,-1.4130858999999998,1
1607,9.160706,-0.21647644,-1.4142914,1
1608,9.226547,-0.26914978,-1.2778167999999999,1
1609,9.281616,-0.24043274,-1.2359161,1
1610,9.273239,-0.23564148,-1.1652985,1
1611,9.179855,-0.22007751,-1.1114197000000001,1
1612,9.131973,-0.2320404,-1.0707245,1
1613,9.145142,-0.21289063,-0.9653778000000001,1
1614,9.207397,-0.12789917,-1.064743,1
1615,9.169083,-0.11592102,-1.1712798999999998,1
1616,9.201400999999999,-0.13508606,-1.1760712,1
1617,9.319916000000001,-0.15782166,-1.1341705,1
1618,9.299576,-0.16500854,-1.1605072,1
1619,9.127182000000001,-0.16979979999999997,-1.0539703,1
1620,9.181061,-0.15663147,-0.8779906999999999,1
1621,9.23851,-0.19613647,-0.867218,1
1622,9.233734,-0.21647644,-0.80496216,1
1623,9.249298,-0.25598145,-0.77264404,1
1624,9.225342,-0.22845459,-0.71517944,1
1625,9.185837,-0.210495,-0.6804657,1
1626,9.128387,-0.19374084,-0.8073578,1
1627,9.203796,-0.24281311,-0.74391174,1
1628,9.261261,-0.29788208,-0.77264404,1
1629,9.348647999999999,-0.30148315,-0.788208,1
1630,9.343857,-0.29071045,-0.7522888000000001,1
1631,9.323516999999999,-0.3182373,-0.7451171999999999,1
1632,9.21936,-0.28710938,-0.68167114,1
1633,9.233734,-0.29190063,-0.58470154,1
1634,9.234924000000001,-0.28831482,-0.551178,1
1635,9.2313385,-0.29788208,-0.59906006,1
1636,9.202606,-0.26795959999999996,-0.54878235,1
1637,9.295975,-0.24880981,-0.48654175,1
1638,9.274429,-0.22845459,-0.5823059,1
1639,9.230133,-0.24520874,-0.590683,1
1640,9.246902,-0.2571869,-0.61701965,1
1641,9.278015,-0.27514648,-0.53082275,1
1642,9.287598,-0.24162292,-0.55477905,1
1643,9.25528,-0.23564148,-0.6110382,1
1644,9.239716,-0.2320404,-0.5966644,1
1645,9.221756,-0.24043274,-0.5715332,1
1646,9.233734,-0.20930481,-0.6038513000000001,1
1647,9.261261,-0.24520874,-0.6253966999999999,1
1648,9.240905999999999,-0.26316833,-0.6218109,1
1649,9.254074000000001,-0.25598145,-0.5691376,1
1650,9.242111,-0.2715454,-0.5499878,1
1651,9.278015,-0.29190063,-0.5236510999999999,1
1652,9.342667,-0.28231812,-0.5428009,1
1653,9.248092999999999,-0.27035522,-0.5056915,1
1654,9.195419000000001,-0.26914978,-0.5068817,1
1655,9.226547,-0.3182373,-0.5392151,1
1656,9.3103485,-0.30387878,-0.55477905,1
1657,9.337875,-0.289505,-0.5571594,1
1658,9.311539,-0.24880981,-0.49850464,1
1659,9.281616,-0.21409607,-0.49491882,1
1660,9.222961,-0.20570374,-0.48533630000000005,1
1661,9.221756,-0.28352356,-0.5428009,1
1662,9.29718,-0.24641418,-0.5236510999999999,1
1663,9.306747,-0.2966919,-0.6218109,1
1664,9.309142999999999,-0.25958252,-0.59547424,1
1665,9.285202,-0.30267334,-0.5631560999999999,1
1666,9.267242,-0.25958252,-0.43626404,1
1667,9.246902,-0.27633667,-0.45899963,1
1668,9.29718,-0.31584167,-0.5140686,1
1669,9.222961,-0.33140564,-0.51885986,1
1670,9.273239,-0.29190063,-0.45899963,1
1671,9.284011999999999,-0.26675415,-0.5751189999999999,1
1672,9.2313385,-0.33021545,-0.5463866999999999,1
1673,9.299576,-0.3481598,-0.53800964,1
1674,9.319916000000001,-0.3361969,-0.48054504,1
1675,9.291183,-0.34576416,-0.43865967,1
1676,9.183456,-0.3541565,-0.42189026,1
1677,9.167892,-0.30148315,-0.45780945,1
1678,9.243300999999999,-0.3002777,-0.5176544,1
1679,9.322311000000001,-0.33259583,-0.56674194,1
1680,9.250488,-0.32781982,-0.60624695,1
1681,9.25528,-0.34576416,-0.5751189999999999,1
1682,9.303162,-0.3541565,-0.6014556999999999,1
1683,9.400131,-0.38168335,-0.7080078000000001,1
1684,9.293579,-0.37330627,-0.72236633,1
1685,9.183456,-0.28471375,-0.6661071999999999,1
1686,9.178664999999999,-0.25837708,-0.62060547,1
1687,9.25528,-0.32302856,-0.64694214,1
1688,9.325911999999999,-0.3361969,-0.6708831999999999,1
1689,9.276825,-0.36372375,-0.6912384,1
1690,9.207397,-0.3469696,-0.69244385,1
1691,9.250488,-0.32661438,-0.62060547,1
1692,9.293579,-0.35534668,-0.68644714,1
1693,9.266052,-0.33978270000000005,-0.6589203,1
1694,9.232529,-0.33259583,-0.66490173,1
1695,9.258865,-0.34936523,-0.7056121999999999,1
1696,9.269638,-0.31584167,-0.64694214,1
1697,9.248092999999999,-0.37210083,-0.67807007,1
1698,9.282805999999999,-0.3876648,-0.65293884,1
1699,9.284011999999999,-0.39245605,-0.72476196,1
1700,9.244507,-0.36013794,-0.69721985,1
1701,9.201400999999999,-0.30986023,-0.62420654,1
1702,9.29837,-0.3541565,-0.6613159000000001,1
1703,9.208588,-0.3469696,-0.71517944,1
1704,9.178664999999999,-0.39126587,-0.68644714,1
1705,9.29718,-0.37928772,-0.69363403,1
1706,9.352234,-0.35295105,-0.6888428000000001,1
1707,9.304352,-0.36132813,-0.7163849,1
1708,9.250488,-0.33259583,-0.76545715,1
1709,9.191833500000001,-0.2715454,-0.67567444,1
1710,9.197815,-0.2859192,-0.6912384,1
1711,9.257675,-0.29548645,-0.72117615,1
1712,9.268448,-0.32421875,-0.76426697,1
1713,9.325911999999999,-0.30625916,-0.7594757,1
1714,9.29837,-0.3469696,-0.7750397,1
1715,9.289992999999999,-0.33738708,-0.7391205,1
1716,9.279221000000001,-0.35653687,-0.6804657,1
1717,9.226547,-0.33140564,-0.6804657,1
1718,9.220566,-0.33140564,-0.6685028000000001,1
1719,9.212173,-0.3182373,-0.70321655,1
1720,9.244507,-0.35055542,-0.6948395,1
1721,9.261261,-0.34936523,-0.67807007,1
1722,9.272034,-0.31704712,-0.6840515,1
1723,9.276825,-0.34936523,-0.69244385,1
1724,9.2708435,-0.35653687,-0.67807007,1
1725,9.258865,-0.32900999999999997,-0.6577301,1
1726,9.254074000000001,-0.3697052,-0.6768799,1
1727,9.233734,-0.3541565,-0.6948395,1
1728,9.225342,-0.35653687,-0.6720885999999999,1
1729,9.258865,-0.34098816,-0.66729736,1
1730,9.313934,-0.38049316,-0.72117615,1
1731,9.242111,-0.41041565,-0.64575195,1
1732,9.263657,-0.39485168,-0.6182251,1
1733,9.312744,-0.3984375,-0.7008209,1
1734,9.225342,-0.39964294,-0.7056121999999999,1
1735,9.249298,-0.40802002,-0.6517334,1
1736,9.275619500000001,-0.39245605,-0.62779236,1
1737,9.286407,-0.42716980000000004,-0.63856506,1
1738,9.220566,-0.37570190000000003,-0.6110382,1
1739,9.185837,-0.34217834,-0.6122284,1
1740,9.232529,-0.37809753,-0.6708831999999999,1
1741,9.222961,-0.39485168,-0.69244385,1
1742,9.279221000000001,-0.41520690000000005,-0.7080078000000001,1
1743,9.273239,-0.41281128,-0.7235564999999999,1
1744,9.301956,-0.35055542,-0.64575195,1
1745,9.280411,-0.37570190000000003,-0.63856506,1
1746,9.250488,-0.368515,-0.66490173,1
1747,9.263657,-0.34457397,-0.7103881999999999,1
1748,9.2313385,-0.3589325,-0.68525696,1
1749,9.282805999999999,-0.38049316,-0.7103881999999999,1
1750,9.261261,-0.3469696,-0.65293884,1
1751,9.268448,-0.33140564,-0.6876526,1
1752,9.261261,-0.30267334,-0.69602966,1
1753,9.240905999999999,-0.31942750000000003,-0.70321655,1
1754,9.273239,-0.34457397,-0.7271576,1
1755,9.258865,-0.30267334,-0.6888428000000001,1
1756,9.266052,-0.35176086,-0.7283478,1
1757,9.263657,-0.29788208,-0.72476196,1
1758,9.221756,-0.33259583,-0.70440674,1
1759,9.25528,-0.30865479999999995,-0.7115935999999999,1
1760,9.257675,-0.32063293,-0.748703,1
1761,9.250488,-0.32900999999999997,-0.73672485,1
1762,9.264847,-0.31225586,-0.63139343,1
1763,9.331894,-0.30865479999999995,-0.7451171999999999,1
1764,9.245697,-0.32661438,-0.8253174000000001,1
1765,9.173874,-0.37330627,-0.7606659,1
1766,9.224152,-0.3697052,-0.6732788000000001,1
1767,9.269638,-0.38049316,-0.63139343,1
1768,9.251678,-0.36132813,-0.66490173,1
1769,9.249298,-0.32302856,-0.69363403,1
1770,9.2313385,-0.3254242,-0.6900482,1
1771,9.267242,-0.3361969,-0.6984253,1
1772,9.257675,-0.35176086,-0.73194885,1
1773,9.254074000000001,-0.33380127,-0.72236633,1
1774,9.274429,-0.32182312,-0.7115935999999999,1
1775,9.262466,-0.3469696,-0.69721985,1
1776,9.205002,-0.3481598,-0.7008209,1
1777,9.236130000000001,-0.30387878,-0.74272156,1
1778,9.266052,-0.34576416,-0.7463074000000001,1
1779,9.269638,-0.36013794,-0.7451171999999999,1
1780,9.2708435,-0.36732483,-0.72476196,1
1781,9.258865,-0.3361969,-0.7307434,1
1782,9.25528,-0.36372375,-0.6996155,1
1783,9.244507,-0.34338379999999996,-0.74272156,1
1784,9.23851,-0.31584167,-0.7056121999999999,1
1785,9.260071,-0.3146515,-0.73553467,1
1786,9.268448,-0.29908752,-0.72117615,1
1787,9.261261,-0.29309082,-0.7989807,1
1788,9.258865,-0.3182373,-0.79418945,1
1789,9.243300999999999,-0.31584167,-0.72476196,1
1790,9.252884,-0.289505,-0.7187805,1
1791,9.282805999999999,-0.31584167,-0.7594757,1
1792,9.261261,-0.30387878,-0.7570800999999999,1
1793,9.267242,-0.29190063,-0.70440674,1
1794,9.365402,-0.30267334,-0.8396759,1
1795,9.227737,-0.31105042,-0.9043273999999999,1
1796,9.201400999999999,-0.28831482,-0.76545715,1
1797,9.193024000000001,-0.29788208,-0.6720885999999999,1
1798,9.251678,-0.27633667,-0.630188,1
1799,9.251678,-0.29190063,-0.69363403,1
1800,9.243300999999999,-0.27035522,-0.70321655,1
1801,9.258865,-0.26437378,-0.6900482,1
1802,9.262466,-0.2715454,-0.7271576,1
1803,9.2313385,-0.28231812,-0.70680237,1
1804,9.23732,-0.27275085,-0.7115935999999999,1
1805,9.281616,-0.29908752,-0.7199707,1
1806,9.287598,-0.29548645,-0.73194885,1
1807,9.249298,-0.32900999999999997,-0.7115935999999999,1
1808,9.25528,-0.30148315,-0.7008209,1
1809,9.251678,-0.30986023,-0.6900482,1
1810,9.23732,-0.289505,-0.6768799,1
1811,9.268448,-0.27394104,-0.68644714,1
1812,9.2708435,-0.2787323,-0.709198,1
1813,9.244507,-0.24520874,-0.7570800999999999,1
1814,9.242111,-0.2607727,-0.7175751,1
1815,9.249298,-0.289505,-0.7498931999999999,1
1816,9.249298,-0.30865479999999995,-0.7606659,1
1817,9.267242,-0.27754209999999996,-0.7379303,1
1818,9.278015,-0.29548645,-0.7283478,1
1819,9.264847,-0.27394104,-0.7606659,1
1820,9.260071,-0.26675415,-0.79299927,1
1821,9.213379,-0.26795959999999996,-0.7858124,1
1822,9.213379,-0.28471375,-0.7690581999999999,1
1823,9.301956,-0.28231812,-0.78341675,1
1824,9.249298,-0.29548645,-0.7786255,1
1825,9.260071,-0.289505,-0.7008209,1
1826,9.336685000000001,-0.29429626,-0.7953949,1
1827,9.194229,-0.32182312,-0.81333923,1
1828,9.224152,-0.3254242,-0.7391205,1
1829,9.252884,-0.28831482,-0.69363403,1
1830,9.304352,-0.289505,-0.6253966999999999,1
1831,9.246902,-0.3361969,-0.68167114,1
1832,9.216965,-0.2859192,-0.6984253,1
1833,9.23732,-0.2787323,-0.7307434,1
1834,9.25647,-0.30267334,-0.7666626,1
1835,9.268448,-0.29908752,-0.7594757,1
1836,9.264847,-0.32302856,-0.7127838000000001,1
1837,9.273239,-0.31344604,-0.7295531999999999,1
1838,9.278015,-0.31344604,-0.76187134,1
1839,9.260071,-0.32661438,-0.81573486,1
1840,9.245697,-0.29309082,-0.8360901,1
1841,9.225342,-0.3002777,-0.7678528,1
1842,9.216965,-0.31584167,-0.7570800999999999,1
1843,9.216965,-0.36013794,-0.7056121999999999,1
1844,9.281616,-0.33978270000000005,-0.70440674,1
1845,9.295975,-0.31225586,-0.75349426,1
1846,9.279221000000001,-0.29908752,-0.80496216,1
1847,9.23851,-0.33978270000000005,-0.84207153,1
1848,9.214569000000001,-0.32781982,-0.88038635,1
1849,9.227737,-0.30506897,-0.8277129999999999,1
1850,9.222961,-0.3002777,-0.8384857,1
1851,9.267242,-0.32421875,-0.8648224,1
1852,9.286407,-0.34576416,-0.92826843,1
1853,9.272034,-0.35534668,-0.92108154,1
1854,9.220566,-0.32900999999999997,-0.9162903,1
1855,9.181061,-0.34338379999999996,-0.87319946,1
1856,9.172684,-0.30865479999999995,-0.8456726000000001,1
1857,9.243300999999999,-0.3146515,-0.8468628,1
1858,9.267242,-0.32900999999999997,-0.81573486,1
1859,9.258865,-0.32421875,-0.79060364,1
1860,9.273239,-0.30986023,-0.9917145,1
1861,9.164291,-0.31344604,-0.95939636,1
1862,9.209793,-0.3254242,-0.8755951,1
1863,9.242111,-0.33140564,-0.83369446,1
1864,9.269638,-0.34098816,-0.89234924,1
1865,9.232529,-0.34936523,-0.9079132,1
1866,9.274429,-0.39724729999999997,-0.92826843,1
1867,9.263657,-0.36132813,-0.92826843,1
1868,9.206192,-0.36372375,-0.9222870000000001,1
1869,9.191833500000001,-0.4044342,-0.9294585999999999,1
1870,9.208588,-0.40203857,-0.8384857,1
1871,9.280411,-0.41999817,-0.8648224,1
1872,9.25528,-0.43077087,-0.882782,1
1873,9.23851,-0.43077087,-0.8791809000000002,1
1874,9.195419000000001,-0.42597959999999996,-0.88757324,1
1875,9.209793,-0.42597959999999996,-0.83010864,1
1876,9.234924000000001,-0.43554688,-0.79418945,1
1877,9.252884,-0.48582458,-0.8025665,1
1878,9.258865,-0.4774475,-0.77622986,1
1879,9.261261,-0.4439392,-0.81933594,1
1880,9.232529,-0.42477417,-0.8372803,1
1881,9.226547,-0.41639709999999996,-0.85523987,1
1882,9.201400999999999,-0.39245605,-0.8576355,1
1883,9.224152,-0.38887024,-0.8241272,1
1884,9.225342,-0.42358398,-0.80856323,1
1885,9.220566,-0.42597959999999996,-0.8181305,1
1886,9.17627,-0.48223877,-0.8169403000000001,1
1887,9.116408999999999,-0.45829773,-0.8025665,1
1888,9.181061,-0.5157623,-0.5679474,1
1889,9.465973,-0.47265625,-0.5894928,1
1890,9.482727,-0.23443604,-0.7020111,1
1891,9.347458,-0.23443604,-0.8720093000000001,1
1892,9.3498535,-0.17936707,-1.1808624,1
1893,9.1128235,-0.24162292,-1.0599518,1
1894,9.043396000000001,-0.33499146,-0.74272156,1
1895,9.116408999999999,-0.31225586,-0.77622986,1
1896,9.201400999999999,-0.21289063,-0.94262695,1
1897,9.333084,-0.22964478,-0.9546051,1
1898,9.365402,-0.21887207,-1.0431824,1
1899,9.260071,-0.22726439999999998,-1.0623474,1
1900,9.226547,-0.24520874,-1.0324096999999999,1
1901,9.153519000000001,-0.28231812,-1.0886841,1
1902,9.117614999999999,-0.27514648,-0.99650574,1
1903,9.216965,-0.2320404,-0.88157654,1
1904,9.327103,-0.26197815,-0.86242676,1
1905,9.292389,-0.34576416,-0.9258728,1
1906,9.267242,-0.38287354,-1.0395966,1
1907,9.248092999999999,-0.37570190000000003,-1.0204468,1
1908,9.225342,-0.2787323,-0.9833374,1
1909,9.200211,-0.2571869,-0.8779906999999999,1
1910,9.227737,-0.33021545,-0.7630615,1
1911,9.242111,-0.40203857,-0.7858124,1
1912,9.275619500000001,-0.4092102,-0.9510193000000001,1
1913,9.264847,-0.36732483,-0.98573303,1
1914,9.23851,-0.34576416,-0.9905243,1
1915,9.250488,-0.38647459999999995,-0.9725647,1
1916,9.228943,-0.37570190000000003,-0.9689636,1
1917,9.239716,-0.36253357,-0.8755951,1
1918,9.25647,-0.34576416,-0.9186859,1
1919,9.226547,-0.34576416,-0.9510193000000001,1
1920,9.212173,-0.31584167,-0.9725647,1
1921,9.214569000000001,-0.32781982,-0.90193176,1
1922,9.278015,-0.44154358,-0.7343445,1
1923,9.321121,-0.41281128,-0.85523987,1
1924,9.224152,-0.31344604,-0.98573303,1
1925,9.181061,-0.17098999,-0.94262695,1
1926,9.304352,-0.15303039999999998,-0.9366455,1
1927,9.210983,-0.16740417,-1.104248,1
1928,9.187042,-0.18894958,-1.0240326,1
1929,9.251678,-0.27394104,-0.87080383,1
1930,9.266052,-0.32900999999999997,-0.78700256,1
1931,9.23851,-0.3361969,-0.7858124,1
1932,9.210983,-0.24401855,-0.9079132,1
1933,9.260071,-0.21768188,-0.927063,1
1934,9.258865,-0.289505,-0.9474181999999999,1
1935,9.244507,-0.30387878,-0.90193176,1
1936,9.2313385,-0.30148315,-0.8325043,1
1937,9.205002,-0.31225586,-0.81333923,1
1938,9.285202,-0.25479126,-0.8887634,1
1939,9.272034,-0.22366333,-0.89115906,1
1940,9.260071,-0.22605896,-0.8779906999999999,1
1941,9.234924000000001,-0.2571869,-0.9797363000000001,1
1942,9.160706,-0.33859253,-1.0156555,1
1943,9.188232000000001,-0.29309082,-0.95339966,1
1944,9.173874,-0.23324585,-0.8312988000000001,1
1945,9.207397,-0.22366333,-0.82650757,1
1946,9.285202,-0.27275085,-0.8720093000000001,1
1947,9.278015,-0.34576416,-0.8935546999999998,1
1948,9.251678,-0.33380127,-0.89953613,1
1949,9.246902,-0.28112793,-0.8468628,1
1950,9.23732,-0.22605896,-0.88397217,1
1951,9.23732,-0.22605896,-0.9079132,1
1952,9.201400999999999,-0.2607727,-0.9438324,1
1953,9.210983,-0.3146515,-0.9402313,1
1954,9.2708435,-0.35774229999999996,-0.9629822,1
1955,9.309142999999999,-0.35774229999999996,-0.9402313,1
1956,9.251678,-0.32302856,-0.8791809000000002,1
1957,9.233734,-0.32302856,-0.9294585999999999,1
1958,9.193024000000001,-0.29309082,-0.85523987,1
1959,9.25647,-0.24162292,-0.8097534000000001,1
1960,9.262466,-0.24401855,-0.79299927,1
1961,9.224152,-0.31225586,-0.7080078000000001,1
1962,9.212173,-0.31105042,-0.72117615,1
1963,9.313934,-0.30625916,-0.88038635,1
1964,9.221756,-0.3074646,-0.9641876,1
1965,9.199005,-0.24520874,-0.8863678,1
1966,9.206192,-0.21768188,-0.84446716,1
1967,9.260071,-0.22964478,-0.82173157,1
1968,9.240905999999999,-0.26556396,-0.8947449000000001,1
1969,9.205002,-0.28710938,-0.9222870000000001,1
1970,9.183456,-0.29429626,-0.906723,1
1971,9.17627,-0.25120544,-0.9653778000000001,1
1972,9.199005,-0.26197815,-0.9641876,1
1973,9.2313385,-0.25837708,-0.94262695,1
1974,9.252884,-0.30267334,-0.8612366,1
1975,9.327103,-0.29908752,-0.76187134,1
1976,9.23851,-0.38647459999999995,-0.8001709,1
1977,9.248092999999999,-0.27514648,-1.1605072,1
1978,9.221756,-0.19972229,-1.069519,1
1979,9.227737,-0.21409607,-0.9725647,1
1980,9.167892,-0.25479126,-0.9845276,1
1981,9.194229,-0.36732483,-0.9689636,1
1982,9.295975,-0.39126587,-0.8540496999999999,1
1983,9.33429,-0.4487152,-0.79060364,1
1984,9.306747,-0.45231628,-0.82650757,1
1985,9.260071,-0.41879272,-0.9186859,1
1986,9.221756,-0.33259583,-0.906723,1
1987,9.202606,-0.26556396,-0.88157654,1
1988,9.202606,-0.21887207,-0.88397217,1
1989,9.194229,-0.24401855,-0.87319946,1
1990,9.199005,-0.25479126,-0.89115906,1
1991,9.205002,-0.2966919,-0.9330596999999999,1
1992,9.230133,-0.29309082,-1.0096741,1
1993,9.207397,-0.2859192,-1.0120697,1
1994,9.239716,-0.28831482,-0.9941101000000001,1
1995,9.288788,-0.33499146,-1.006073,1
1996,9.221756,-0.3182373,-0.9522094999999999,1
1997,9.195419000000001,-0.26914978,-0.93904114,1
1998,9.329498,-0.26437378,-1.006073,1
1999,9.200211,-0.27035522,-1.0838927999999999,1
2000,9.207397,-0.31584167,-1.0216370000000001,1
2001,9.157119999999999,-0.31105042,-0.88757324,1
2002,9.2313385,-0.33021545,-0.81573486,1
2003,9.275619500000001,-0.31942750000000003,-0.8492584000000001,1
2004,9.254074000000001,-0.28231812,-0.8564453000000002,1
2005,9.203796,-0.2607727,-0.91389465,1
2006,9.216965,-0.21409607,-0.9294585999999999,1
2007,9.203796,-0.20930481,-0.9294585999999999,1
2008,9.200211,-0.21647644,-0.9629822,1
2009,9.232529,-0.2607727,-0.8755951,1
2010,9.321121,-0.28231812,-0.90193176,1
2011,9.261261,-0.29429626,-0.9258728,1
2012,9.232529,-0.2799225,-0.9079132,1
2013,9.216965,-0.31344604,-0.9222870000000001,1
2014,9.242111,-0.30387878,-0.8959503000000001,1
2015,9.232529,-0.32182312,-0.9641876,1
2016,9.239716,-0.33859253,-0.93904114,1
2017,9.2708435,-0.3146515,-0.95339966,1
2018,9.286407,-0.26795959999999996,-1.0324096999999999,1
2019,9.234924000000001,-0.24043274,-1.0024872,1
2020,9.183456,-0.21170044,-0.9522094999999999,1
2021,9.154724,-0.15065002,-0.9115143,1
2022,9.161896,-0.10874939,-0.9043273999999999,1
2023,9.201400999999999,-0.16619873,-0.8899536,1
2024,9.250488,-0.25239563,-0.9174957,1
2025,9.288788,-0.2571869,-0.9641876,1
2026,9.279221000000001,-0.20092773,-0.966568,1
2027,9.224152,-0.19732666,-0.9043273999999999,1
2028,9.205002,-0.22726439999999998,-0.88038635,1
2029,9.282805999999999,-0.2571869,-0.8899536,1
2030,9.260071,-0.25239563,-0.9737549000000001,1
2031,9.167892,-0.26795959999999996,-0.8947449000000001,1
2032,9.275619500000001,-0.21409607,-0.89953613,1
2033,9.266052,-0.15782166,-1.0551605,1
2034,9.159514999999999,-0.15065002,-0.9510193000000001,1
2035,9.179855,-0.12550354,-0.8744049,1
2036,9.245697,-0.19972229,-0.82292175,1
2037,9.267242,-0.23324585,-0.7917938,1
2038,9.2313385,-0.20570374,-0.81214905,1
2039,9.2313385,-0.22726439999999998,-0.8312988000000001,1
2040,9.250488,-0.27514648,-0.8612366,1
2041,9.23732,-0.28831482,-0.8959503000000001,1
2042,9.199005,-0.22845459,-0.90312195,1
2043,9.197815,-0.25837708,-0.8348999,1
2044,9.248092999999999,-0.25958252,-0.8600310999999999,1
2045,9.260071,-0.2715454,-0.8851776,1
2046,9.252884,-0.29429626,-0.8863678,1
2047,9.222961,-0.26197815,-0.8648224,1
2048,9.244507,-0.2571869,-0.92826843,1
2049,9.25528,-0.25360107,-0.8720093000000001,1
2050,9.2313385,-0.28112793,-0.8648224,1
2051,9.224152,-0.2799225,-0.7786255,1
2052,9.254074000000001,-0.26316833,-0.81333923,1
2053,9.262466,-0.30267334,-0.7786255,1
2054,9.278015,-0.34217834,-0.76187134,1
2055,9.284011999999999,-0.43077087,-0.7953949,1
2056,9.294785000000001,-0.41999817,-0.8145446999999999,1
2057,9.25647,-0.37210083,-0.84806824,1
2058,9.2313385,-0.28112793,-0.8660126,1
2059,9.21936,-0.26556396,-0.85284424,1
2060,9.200211,-0.1925354,-0.8396759,1
2061,9.216965,-0.17817688,-0.7917938,1
2062,9.254074000000001,-0.210495,-0.8576355,1
2063,9.246902,-0.22964478,-0.7893982,1
2064,9.205002,-0.2212677,-0.80856323,1
2065,9.304352,-0.20690918,-0.8181305,1
2066,9.282805999999999,-0.26675415,-0.80496216,1
2067,9.213379,-0.28831482,-0.75468445,1
2068,9.249298,-0.30267334,-0.70680237,1
2069,9.266052,-0.32182312,-0.84446716,1
2070,9.244507,-0.42118835,-0.83010864,1
2071,9.262466,-0.41520690000000005,-0.7175751,1
2072,9.309142999999999,-0.38287354,-0.7463074000000001,1
2073,9.29718,-0.40322876,-0.72595215,1
2074,9.25647,-0.38526917,-0.76426697,1
2075,9.182250999999999,-0.29429626,-0.7463074000000001,1
2076,9.197815,-0.26675415,-0.788208,1
2077,9.228943,-0.29190063,-0.77622986,1
2078,9.291183,-0.25,-0.77264404,1
2079,9.282805999999999,-0.2571869,-0.76426697,1
2080,9.301956,-0.26437378,-0.7199707,1
2081,9.240905999999999,-0.2799225,-0.72117615,1
2082,9.212173,-0.29190063,-0.76426697,1
2083,9.194229,-0.26675415,-0.74391174,1
2084,9.240905999999999,-0.32182312,-0.71517944,1
2085,9.254074000000001,-0.31584167,-0.7187805,1
2086,9.267242,-0.34457397,-0.7175751,1
2087,9.251678,-0.3182373,-0.7463074000000001,1
2088,9.279221000000001,-0.29190063,-0.7463074000000001,1
2089,9.227737,-0.26316833,-0.7810210999999999,1
2090,9.248092999999999,-0.31344604,-0.76545715,1
2091,9.236130000000001,-0.28471375,-0.80496216,1
2092,9.215775,-0.24880981,-0.8384857,1
2093,9.240905999999999,-0.29788208,-0.81933594,1
2094,9.239716,-0.28471375,-0.843277,1
2095,9.225342,-0.27633667,-0.8372803,1
2096,9.282805999999999,-0.30506897,-0.83369446,1
2097,9.251678,-0.30986023,-0.8648224,1
2098,9.267242,-0.31704712,-0.882782,1
2099,9.284011999999999,-0.32900999999999997,-0.8971405000000001,1
2100,9.222961,-0.28831482,-0.8492584000000001,1
2101,9.222961,-0.27035522,-0.8253174000000001,1
2102,9.215775,-0.2607727,-0.8289032,1
2103,9.262466,-0.27754209999999996,-0.8684082000000001,1
2104,9.208588,-0.27633667,-0.8384857,1
2105,9.266052,-0.27035522,-0.7391205,1
2106,9.303162,-0.28112793,-0.86961365,1
2107,9.236130000000001,-0.29548645,-0.9043273999999999,1
2108,9.220566,-0.30625916,-0.8061676,1
2109,9.260071,-0.30387878,-0.788208,1
2110,9.246902,-0.27754209999999996,-0.8277129999999999,1
2111,9.225342,-0.3146515,-0.9007415999999999,1
2112,9.202606,-0.26197815,-0.9354553,1
2113,9.236130000000001,-0.30625916,-0.96777344,1
2114,9.258865,-0.30625916,-0.94143677,1
2115,9.251678,-0.28471375,-0.9689636,1
2116,9.246902,-0.33978270000000005,-0.9234771999999999,1
2117,9.272034,-0.31584167,-0.86961365,1
2118,9.25528,-0.2799225,-0.90193176,1
2119,9.209793,-0.28112793,-0.84446716,1
2120,9.224152,-0.27514648,-0.79060364,1
2121,9.23851,-0.27035522,-0.8396759,1
2122,9.280411,-0.26316833,-0.83369446,1
2123,9.267242,-0.26437378,-0.79060364,1
2124,9.232529,-0.29429626,-0.77983093,1
2125,9.226547,-0.29908752,-0.76187134,1
2126,9.243300999999999,-0.27514648,-0.7522888000000001,1
2127,9.239716,-0.2799225,-0.7774353,1
2128,9.225342,-0.25239563,-0.7307434,1
2129,9.252884,-0.30148315,-0.7893982,1
2130,9.245697,-0.25598145,-0.80496216,1
2131,9.243300999999999,-0.31225586,-0.82292175,1
2132,9.243300999999999,-0.27633667,-0.8097534000000001,1
2133,9.299576,-0.25958252,-0.78341675,1
2134,9.295975,-0.30865479999999995,-0.77264404,1
2135,9.268448,-0.3074646,-0.8289032,1
2136,9.206192,-0.25479126,-0.77145386,1
2137,9.254074000000001,-0.2966919,-0.7606659,1
2138,9.295975,-0.3002777,-0.77622986,1
2139,9.264847,-0.27633667,-0.7630615,1
2140,9.203796,-0.28352356,-0.7080078000000001,1
2141,9.329498,-0.2715454,-0.8001709,1
2142,9.220566,-0.29788208,-0.8899536,1
2143,9.225342,-0.3074646,-0.82650757,1
2144,9.250488,-0.26316833,-0.73553467,1
2145,9.275619500000001,-0.26556396,-0.6948395,1
2146,9.274429,-0.27754209999999996,-0.7475128000000001,1
2147,9.244507,-0.2607727,-0.7846221999999999,1
2148,9.190628,-0.25,-0.75109863,1
2149,9.207397,-0.2571869,-0.75468445,1
2150,9.218169999999999,-0.26795959999999996,-0.7917938,1
2151,9.252884,-0.29908752,-0.8073578,1
2152,9.273239,-0.29071045,-0.7403259,1
2153,9.288788,-0.26556396,-0.73672485,1
2154,9.266052,-0.28471375,-0.7594757,1
2155,9.221756,-0.27394104,-0.77264404,1
2156,9.197815,-0.26437378,-0.7786255,1
2157,9.263657,-0.28352356,-0.7570800999999999,1
2158,9.251678,-0.31105042,-0.76187134,1
2159,9.261261,-0.32900999999999997,-0.7594757,1
2160,9.291183,-0.32421875,-0.7893982,1
2161,9.306747,-0.3182373,-0.82292175,1
2162,9.243300999999999,-0.27035522,-0.77264404,1
2163,9.234924000000001,-0.29429626,-0.75109863,1
2164,9.178664999999999,-0.27754209999999996,-0.74391174,1
2165,9.203796,-0.26556396,-0.7690581999999999,1
2166,9.220566,-0.27394104,-0.75349426,1
2167,9.261261,-0.30267334,-0.75468445,1
2168,9.287598,-0.29190063,-0.73672485,1
2169,9.282805999999999,-0.30986023,-0.7379303,1
2170,9.284011999999999,-0.28352356,-0.7403259,1
2171,9.280411,-0.26556396,-0.7343445,1
2172,9.281616,-0.26316833,-0.7343445,1
2173,9.208588,-0.2715454,-0.68525696,1
2174,9.224152,-0.27514648,-0.6613159000000001,1
2175,9.31752,-0.2966919,-0.67807007,1
2176,9.291183,-0.34576416,-0.7463074000000001,1
2177,9.215775,-0.36372375,-0.7008209,1
2178,9.33429,-0.33978270000000005,-0.72236633,1
2179,9.273239,-0.29788208,-0.8791809000000002,1
2180,9.209793,-0.30506897,-0.7403259,1
2181,9.239716,-0.27754209999999996,-0.6732788000000001,1
2182,9.273239,-0.30865479999999995,-0.6625061,1
2183,9.25647,-0.3182373,-0.67448425,1
2184,9.240905999999999,-0.3074646,-0.72236633,1
2185,9.224152,-0.29548645,-0.68525696,1
2186,9.250488,-0.29908752,-0.7127838000000001,1
2187,9.236130000000001,-0.25837708,-0.7175751,1
2188,9.248092999999999,-0.25479126,-0.6888428000000001,1
2189,9.222961,-0.26556396,-0.68167114,1
2190,9.273239,-0.2212677,-0.6996155,1
2191,9.257675,-0.24641418,-0.7271576,1
2192,9.220566,-0.25837708,-0.7271576,1
2193,9.244507,-0.26316833,-0.7056121999999999,1
2194,9.289992999999999,-0.26795959999999996,-0.69602966,1
2195,9.261261,-0.29309082,-0.6828613,1
2196,9.252884,-0.27275085,-0.68167114,1
2197,9.251678,-0.2787323,-0.68644714,1
2198,9.276825,-0.29190063,-0.7295531999999999,1
2199,9.254074000000001,-0.29788208,-0.7163849,1
2200,9.251678,-0.27633667,-0.7271576,1
2201,9.243300999999999,-0.2787323,-0.7115935999999999,1
2202,9.244507,-0.29309082,-0.73672485,1
2203,9.249298,-0.31105042,-0.7522888000000001,1
2204,9.251678,-0.2715454,-0.7115935999999999,1
2205,9.248092999999999,-0.23324585,-0.7103881999999999,1
2206,9.243300999999999,-0.26197815,-0.6768799,1
2207,9.23732,-0.26316833,-0.68167114,1
2208,9.232529,-0.25958252,-0.66729736,1
2209,9.269638,-0.28710938,-0.67807007,1
2210,9.234924000000001,-0.29548645,-0.6804657,1
2211,9.242111,-0.25598145,-0.6984253,1
2212,9.266052,-0.20451355,-0.7475128000000001,1
2213,9.286407,-0.24880981,-0.8169403000000001,1
2214,9.193024000000001,-0.24401855,-0.7199707,1
2215,9.285202,-0.27394104,-0.7295531999999999,1
2216,9.214569000000001,-0.31704712,-0.8791809000000002,1
2217,9.230133,-0.34936523,-0.8468628,1
2218,9.258865,-0.33859253,-0.803772,1
2219,9.295975,-0.33380127,-0.7846221999999999,1
2220,9.2708435,-0.34338379999999996,-0.803772,1
2221,9.2313385,-0.34217834,-0.7846221999999999,1
2222,9.222961,-0.33140564,-0.82650757,1
2223,9.232529,-0.31344604,-0.8576355,1
2224,9.245697,-0.32781982,-0.7917938,1
2225,9.254074000000001,-0.29071045,-0.8253174000000001,1
2226,9.252884,-0.30865479999999995,-0.8169403000000001,1
2227,9.278015,-0.289505,-0.8312988000000001,1
2228,9.230133,-0.25120544,-0.8325043,1
2229,9.213379,-0.26914978,-0.79299927,1
2230,9.201400999999999,-0.28231812,-0.8169403000000001,1
2231,9.249298,-0.2715454,-0.7977905,1
2232,9.264847,-0.30865479999999995,-0.8384857,1
2233,9.292389,-0.3182373,-0.8097534000000001,1
2234,9.254074000000001,-0.33140564,-0.81333923,1
2235,9.23851,-0.35295105,-0.8755951,1
2236,9.240905999999999,-0.35295105,-0.88157654,1
2237,9.230133,-0.3541565,-0.88157654,1
2238,9.252884,-0.37570190000000003,-0.906723,1
2239,9.266052,-0.36372375,-0.88397217,1
2240,9.221756,-0.3541565,-0.84446716,1
2241,9.236130000000001,-0.33380127,-0.843277,1
2242,9.239716,-0.33021545,-0.8073578,1
2243,9.25647,-0.35055542,-0.843277,1
2244,9.243300999999999,-0.3254242,-0.8289032,1
2245,9.244507,-0.29908752,-0.79418945,1
2246,9.289992999999999,-0.2966919,-0.78222656,1
2247,9.284011999999999,-0.33499146,-0.81333923,1
2248,9.236130000000001,-0.35295105,-0.788208,1
2249,9.233734,-0.33859253,-0.7570800999999999,1
2250,9.33548,-0.31704712,-0.8504485999999999,1
2251,9.220566,-0.33140564,-0.8767853000000001,1
2252,9.243300999999999,-0.3254242,-0.8001709,1
2253,9.248092999999999,-0.32063293,-0.7463074000000001,1
2254,9.264847,-0.29908752,-0.72236633,1
2255,9.25528,-0.31584167,-0.7295531999999999,1
2256,9.2313385,-0.30148315,-0.7774353,1
2257,9.23851,-0.30267334,-0.8576355,1
2258,9.284011999999999,-0.31584167,-0.8396759,1
2259,9.228943,-0.29429626,-0.8372803,1
2260,9.23732,-0.30986023,-0.8325043,1
2261,9.288788,-0.3146515,-0.8181305,1
2262,9.2708435,-0.30625916,-0.80856323,1
2263,9.268448,-0.3469696,-0.8396759,1
2264,9.243300999999999,-0.3541565,-0.843277,1
2265,9.243300999999999,-0.3146515,-0.7917938,1
2266,9.221756,-0.3182373,-0.80137634,1
2267,9.230133,-0.32302856,-0.7379303,1
2268,9.251678,-0.32063293,-0.7175751,1
2269,9.266052,-0.31942750000000003,-0.7403259,1
2270,9.262466,-0.29548645,-0.7570800999999999,1
2271,9.262466,-0.28112793,-0.748703,1
2272,9.267242,-0.26914978,-0.71398926,1
2273,9.240905999999999,-0.28112793,-0.7606659,1
2274,9.25528,-0.27394104,-0.78222656,1
2275,9.242111,-0.27035522,-0.7379303,1
2276,9.216965,-0.28831482,-0.74391174,1
2277,9.276825,-0.3074646,-0.803772,1
2278,9.25528,-0.3146515,-0.82173157,1
2279,9.246902,-0.36253357,-0.7917938,1
2280,9.263657,-0.32661438,-0.7810210999999999,1
2281,9.325911999999999,-0.31105042,-0.78700256,1
2282,9.266052,-0.31942750000000003,-0.8169403000000001,1
2283,9.287598,-0.32302856,-0.7127838000000001,1
2284,9.523422,-0.2859192,-0.80496216,1
2285,9.365402,-0.28471375,-0.90193176,1
2286,9.12001,-0.27035522,-0.9845276,1
2287,9.148727000000001,-0.31704712,-0.73672485,1
2288,9.33429,-0.34576416,-0.6014556999999999,1
2289,9.363022,-0.35774229999999996,-0.49012756,1
2290,9.374985,-0.31105042,-0.44943237,1
2291,9.25528,-0.26675415,-0.40034485,1
2292,9.125992,-0.24401855,-0.39794922,1
2293,9.056564,-0.2320404,-0.37161255,1
2294,9.143951,-0.25598145,-0.40274048,1
2295,9.291183,-0.25120544,-0.46020508,1
2296,9.300766000000001,-0.31225586,-0.46020508,1
2297,9.358231,-0.32421875,-0.46260070000000003,1
2298,9.359421000000001,-0.31584167,-0.43386840000000004,1
2299,9.280411,-0.2787323,-0.33810425,1
2300,9.244507,-0.28471375,-0.3081665,1
2301,9.196625,-0.26437378,-0.25549316,1
2302,9.272034,-0.33380127,-0.30337524,1
2303,9.292389,-0.37330627,-0.44104004,1
2304,9.282805999999999,-0.37570190000000003,-0.42189026,1
2305,9.323516999999999,-0.36013794,-0.30458070000000004,1
2306,9.233734,-0.3002777,-0.18965149,1
2307,9.21936,-0.30267334,-0.19204712,1
2308,9.190628,-0.36372375,-0.2578888,1
2309,9.232529,-0.40203857,-0.25309753,1
2310,9.267242,-0.42237854,-0.19204712,1
2311,9.2708435,-0.46788025,-0.18965149,1
2312,9.282805999999999,-0.43315125,-0.21359253,1
2313,9.251678,-0.44273376,-0.18606567,1
2314,9.2313385,-0.3876648,-0.1776886,1
2315,9.196625,-0.4056244,-0.24832153,1
2316,9.233734,-0.46069336,-0.23753357,1
2317,9.239716,-0.47865295,-0.21240234,1
2318,9.152328500000001,-0.38887024,-0.17050171,1
2319,9.263657,-0.33259583,-0.29859924,1
2320,9.218169999999999,-0.29190063,-0.456604,1
2321,9.261261,-0.30625916,-0.43626404,1
2322,9.321121,-0.30267334,-0.43626404,1
2323,9.363022,-0.3254242,-0.46379090000000006,1
2324,9.311539,-0.29788208,-0.46499634,1
2325,9.2708435,-0.26795959999999996,-0.5056915,1
2326,9.303162,-0.30387878,-0.57392883,1
2327,9.306747,-0.27754209999999996,-0.5619506999999999,1
2328,9.289992999999999,-0.29788208,-0.66490173,1
2329,9.260071,-0.31105042,-0.66371155,1
2330,9.295975,-0.35534668,-0.62420654,1
2331,9.294785000000001,-0.32900999999999997,-0.63497925,1
2332,9.269638,-0.35774229999999996,-0.63856506,1
2333,9.248092999999999,-0.31105042,-0.6553345,1
2334,9.242111,-0.33021545,-0.7343445,1
2335,9.209793,-0.30865479999999995,-0.709198,1
2336,9.289992999999999,-0.33380127,-0.6792755,1
2337,9.319916000000001,-0.34217834,-0.6433563,1
2338,9.305557,-0.38887024,-0.6086425999999999,1
2339,9.272034,-0.4343567,-0.5571594,1
2340,9.250488,-0.41400146,-0.5918884,1
2341,9.2313385,-0.4044342,-0.5978699000000001,1
2342,9.2313385,-0.41879272,-0.63497925,1
2343,9.248092999999999,-0.41281128,-0.6708831999999999,1
2344,9.285202,-0.3876648,-0.68525696,1
2345,9.309142999999999,-0.40203857,-0.70321655,1
2346,9.284011999999999,-0.3768921,-0.6912384,1
2347,9.274429,-0.37809753,-0.64216614,1
2348,9.23851,-0.36611938,-0.6182251,1
2349,9.260071,-0.34338379999999996,-0.60266113,1
2350,9.262466,-0.34338379999999996,-0.6433563,1
2351,9.23851,-0.33259583,-0.6732788000000001,1
2352,9.347458,-0.32063293,-0.7403259,1
2353,9.25647,-0.36132813,-0.7786255,1
2354,9.214569000000001,-0.33978270000000005,-0.6589203,1
2355,9.207397,-0.28112793,-0.53681946,1
2356,9.239716,-0.25958252,-0.49971008,1
2357,9.225342,-0.22964478,-0.5212555,1
2358,9.193024000000001,-0.25479126,-0.551178,1
2359,9.29718,-0.3146515,-0.67807007,1
2360,9.292389,-0.38287354,-0.78341675,1
2361,9.327103,-0.38407898,-0.8061676,1
2362,9.33429,-0.33499146,-0.8372803,1
2363,9.263657,-0.32182312,-0.67807007,1
2364,9.261261,-0.30148315,-0.64575195,1
2365,9.227737,-0.3481598,-0.54759216,1
2366,9.2708435,-0.3649292,-0.50090027,1
2367,9.364212,-0.33499146,-0.5834961,1
2368,9.291183,-0.30267334,-0.590683,1
2369,9.258865,-0.2859192,-0.44343567,1
2370,9.276825,-0.27275085,-0.29141235,1
2371,9.233734,-0.14465332,-0.28063965,1
2372,9.205002,-0.09197998,-0.43865967,1
2373,9.155914,-0.07522583,-0.47935486,1
2374,9.184647,-0.14346313,-0.5344238,1
2375,9.202606,-0.25120544,-0.49971008,1
2376,9.289992999999999,-0.41400146,-0.5344238,1
2377,9.3151245,-0.50857544,-0.5727234,1
2378,9.289992999999999,-0.53012085,-0.5236510999999999,1
2379,9.232529,-0.5145569000000001,-0.42907715,1
2380,9.261261,-0.5672302,-0.47695923,1
2381,9.287598,-0.5456848000000001,-0.49731445,1
2382,9.286407,-0.5540619000000001,-0.49971008,1
2383,9.312744,-0.5133667000000001,-0.46379090000000006,1
2384,9.280411,-0.44752502,-0.535614,1
2385,9.220566,-0.43315125,-0.5212555,1
2386,9.215775,-0.36132813,-0.4925232,1
2387,9.242111,-0.30387878,-0.47576904,1
2388,9.260071,-0.24880981,-0.44224548,1
2389,9.292389,-0.22964478,-0.4817505,1
2390,9.289992999999999,-0.14465332,-0.5631560999999999,1
2391,9.240905999999999,-0.14585876,-0.60266113,1
2392,9.226547,-0.14465332,-0.6253966999999999,1
2393,9.2313385,-0.13388062,-0.60505676,1
2394,9.214569000000001,-0.13388062,-0.62779236,1
2395,9.240905999999999,-0.15065002,-0.6194153,1
2396,9.266052,-0.10874939,-0.66371155,1
2397,9.278015,-0.10395813,-0.69363403,1
2398,9.284011999999999,-0.17817688,-0.7127838000000001,1
2399,9.347458,-0.18296814,-0.7558899,1
2400,9.294785000000001,-0.17817688,-0.7103881999999999,1
2401,9.230133,-0.13748169,-0.614624,1
2402,9.218169999999999,-0.07762146,-0.5631560999999999,1
2403,9.200211,-0.07641601599999999,-0.61582947,1
2404,9.220566,-0.10635376,-0.63616943,1
2405,9.29718,-0.2212677,-0.61582947,1
2406,9.280411,-0.24641418,-0.590683,1
2407,9.267242,-0.22247314,-0.6014556999999999,1
2408,9.293579,-0.22605896,-0.6337738,1
2409,9.336685000000001,-0.25120544,-0.6912384,1
2410,9.361816000000001,-0.289505,-0.73553467,1
2411,9.279221000000001,-0.36132813,-0.6804657,1
2412,9.281616,-0.30267334,-0.6433563,1
2413,9.226547,-0.25239563,-0.6182251,1
2414,9.178664999999999,-0.13029480000000002,-0.67567444,1
2415,9.233734,-0.0728302,-0.82292175,1
2416,9.234924000000001,-0.09437561,-0.93185425,1
2417,9.21936,-0.18296814,-0.85284424,1
2418,9.200211,-0.24880981,-0.7475128000000001,1
2419,9.279221000000001,-0.26914978,-0.64456177,1
2420,9.351044,-0.30865479999999995,-0.53681946,1
2421,9.31752,-0.32182312,-0.42428590000000005,1
2422,9.304352,-0.21409607,-0.4051361,1
2423,9.260071,-0.21887207,-0.38957214,1
2424,9.220566,-0.22486877,-0.43026733,1
2425,9.179855,-0.1925354,-0.47097778,1
2426,9.084091,-0.14346313,-0.39076233,1
2427,9.096069,-0.14944458,-0.39196777,1
2428,9.182250999999999,-0.12071228,-0.48414612,1
2429,9.353439,-0.11114502,-0.62779236,1
2430,9.403717,-0.13627625,-0.75468445,1
2431,9.37619,-0.21887207,-0.8001709,1
2432,9.347458,-0.27754209999999996,-0.7522888000000001,1
2433,9.224152,-0.26556396,-0.78341675,1
2434,9.171478,-0.22605896,-0.8744049,1
2435,9.153519000000001,-0.27394104,-0.9043273999999999,1
2436,9.2313385,-0.29309082,-0.8755951,1
2437,9.364212,-0.3469696,-0.8971405000000001,1
2438,9.3701935,-0.3361969,-0.9641876,1
2439,9.29718,-0.19374084,-0.84806824,1
2440,9.287598,-0.13627625,-0.72476196,1
2441,9.268448,-0.10874939,-0.56555176,1
2442,9.232529,-0.10635376,-0.535614,1
2443,9.215775,-0.17219543,-0.52005005,1
2444,9.23851,-0.20570374,-0.46379090000000006,1
2445,9.209793,-0.16619873,-0.45182799999999995,1
2446,9.224152,-0.1015625,-0.49731445,1
2447,9.275619500000001,-0.074035645,-0.53800964,1
2448,9.260071,-0.10635376,-0.5416107,1
2449,9.197815,-0.12550354,-0.5691376,1
2450,9.267242,-0.17459106,-0.6577301,1
2451,9.197815,-0.19134521,-0.78341675,1
2452,9.240905999999999,-0.2715454,-0.71398926,1
2453,9.301956,-0.2715454,-0.6876526,1
2454,9.327103,-0.28352356,-0.7103881999999999,1
2455,9.300766000000001,-0.29788208,-0.7522888000000001,1
2456,9.301956,-0.20930481,-0.6996155,1
2457,9.244507,-0.08720398,-0.7008209,1
2458,9.171478,-0.052474976,-0.80856323,1
2459,9.167892,-0.05368042,-0.77264404,1
2460,9.263657,-0.12310791,-0.7235564999999999,1
2461,9.382172,-0.18536377,-0.7582855,1
2462,9.384567,-0.15303039999999998,-0.74391174,1
2463,9.279221000000001,-0.08720398,-0.7080078000000001,1
2464,9.252884,-0.08480835,-0.58709717,1
2465,9.242111,-0.10635376,-0.64216614,1
2466,9.333084,-0.15663147,-0.79060364,1
2467,9.398926,-0.27035522,-0.9055175999999999,1
2468,9.400131,-0.36013794,-0.8468628,1
2469,9.372589,-0.46308900000000003,-0.6002655,1
2470,9.288788,-0.58039856,-0.44703674,1
2471,9.134369,-0.5899810999999999,-0.28781128,1
2472,9.092467999999998,-0.49661255,-0.15493774,1
2473,9.173874,-0.36372375,-0.097473145,1
2474,9.282805999999999,-0.19374084,-0.18725586,1
2475,9.197815,0.007369995,-0.25190735,1
2476,9.152328500000001,0.32101440000000003,-0.09986877400000001,1
2477,9.155914,0.25875854,0.13116455,1
2478,9.104446000000001,0.10194397,0.19821167,1
2479,9.067337,-0.03453064,0.077301025,1
2480,9.154724,-0.18536377,-0.05198669400000001,1
2481,9.274429,-0.35295105,-0.2686615,1
2482,9.291183,-0.34457397,-0.33091736,1
2483,9.383362,-0.32302856,-0.47097778,1
2484,9.416885,-0.3074646,-0.7403259,1
2485,9.307953,-0.34457397,-0.7774353,1
2486,9.191833500000001,-0.19493103,-0.8576355,1
2487,9.123596000000001,-0.059661865,-1.0671386999999999,1
2488,9.200211,-0.0440979,-1.1138153,1
2489,9.294785000000001,-0.13508606,-0.9953003,1
2490,9.385757,-0.25120544,-0.88397217,1
2491,9.269638,-0.28471375,-0.7175751,1
2492,9.190628,-0.22007751,-0.6708831999999999,1
2493,9.161896,-0.21768188,-0.67567444,1
2494,9.254074000000001,-0.22964478,-0.5834961,1
2495,9.3701935,-0.23564148,-0.6708831999999999,1
2496,9.339081,-0.210495,-0.74272156,1
2497,9.374985,-0.25479126,-0.6481475999999999,1
2498,9.276825,-0.23564148,-0.5499878,1
2499,9.165497,-0.21647644,-0.56555176,1
2500,9.166687,-0.21528625,-0.6289978,1
2501,9.194229,-0.24401855,-0.63616943,1
2502,9.244507,-0.31344604,-0.6912384,1
2503,9.272034,-0.31942750000000003,-0.748703,1
2504,9.312744,-0.3768921,-0.8025665,1
2505,9.336685000000001,-0.35774229999999996,-0.8073578,1
2506,9.272034,-0.41041565,-0.81573486,1
2507,9.240905999999999,-0.3936615,-0.76426697,1
2508,9.263657,-0.3469696,-0.748703,1
2509,9.234924000000001,-0.2607727,-0.7475128000000001,1
2510,9.2708435,-0.21289063,-0.73194885,1
2511,9.274429,-0.25120544,-0.8145446999999999,1
2512,9.246902,-0.23564148,-0.88397217,1
2513,9.279221000000001,-0.25598145,-0.8241272,1
2514,9.257675,-0.29788208,-0.7379303,1
2515,9.218169999999999,-0.3469696,-0.7786255,1
2516,9.294785000000001,-0.3697052,-0.78700256,1
2517,9.382172,-0.46788025,-0.8169403000000001,1
2518,9.301956,-0.44992065,-0.6984253,1
2519,9.166687,-0.4092102,-0.58828735,1
2520,9.215775,-0.368515,-0.6661071999999999,1
2521,9.206192,-0.33978270000000005,-0.61701965,1
2522,9.228943,-0.33140564,-0.41471863,1
2523,9.313934,-0.32302856,-0.19923401,1
2524,9.33429,-0.38049316,-0.08430481,1
2525,9.264847,-0.40682983,-0.06636047,1
2526,9.149933,-0.32302856,-0.13697815,1
2527,9.175064,-0.20690918,-0.21719360000000001,1
2528,9.146347,-0.16859436,-0.24472046,1
2529,9.199005,-0.24520874,-0.44703674,1
2530,9.233734,-0.24641418,-0.58709717,1
2531,9.295975,-0.25479126,-0.73553467,1
2532,9.303162,-0.24162292,-0.7391205,1
2533,9.279221000000001,-0.31344604,-0.82292175,1
2534,9.207397,-0.31704712,-0.89234924,1
2535,9.213379,-0.3768921,-0.8791809000000002,1
2536,9.207397,-0.44631958,-0.8169403000000001,1
2537,9.222961,-0.37449646,-0.7977905,1
2538,9.224152,-0.30986023,-0.7570800999999999,1
2539,9.284011999999999,-0.27275085,-0.6481475999999999,1
2540,9.33429,-0.31105042,-0.6433563,1
2541,9.373795,-0.31105042,-0.69363403,1
2542,9.365402,-0.28831482,-0.7810210999999999,1
2543,9.318726,-0.23803711,-0.75468445,1
2544,9.272034,-0.24281311,-0.80856323,1
2545,9.234924000000001,-0.31704712,-0.8348999,1
2546,9.262466,-0.35653687,-0.8564453000000002,1
2547,9.323516999999999,-0.44273376,-0.89953613,1
2548,9.443222,-0.5313263,-0.88038635,1
2549,9.461182,-0.6294860999999999,-0.9007415999999999,1
2550,9.3151245,-0.56243896,-0.79299927,1
2551,9.13916,-0.45111084,-0.5463866999999999,1
2552,9.033813,-0.2966919,-0.24951172,1
2553,8.993117999999999,-0.2607727,-0.20042420000000002,1
2554,9.213379,-0.31344604,-0.23753357,1
2555,9.49231,-0.37091064,-0.52005005,1
2556,9.5737,-0.46188354,-0.73194885,1
2557,9.525818,-0.5097656,-0.66729736,1
2558,9.260071,-0.49661255,-0.49971008,1
2559,9.169083,-0.46427917,-0.3368988,1
2560,9.068527,-0.38287354,-0.28781128,1
2561,9.103241,-0.289505,-0.34648132,1
2562,9.249298,-0.30387878,-0.47816467,1
2563,9.418076,-0.38168335,-0.6002655,1
2564,9.455185,-0.38407898,-0.5918884,1
2565,9.346252,-0.36253357,-0.43745422,1
2566,9.212173,-0.34936523,-0.28662109999999996,1
2567,9.128387,-0.41879272,-0.11543274,1
2568,9.152328500000001,-0.4451294,-0.10346985,1
2569,9.123596000000001,-0.45350647,-0.054382324,1
2570,9.200211,-0.4092102,-0.059173584,1
2571,9.25528,-0.38647459999999995,0.01625061,1
2572,9.285202,-0.36132813,-0.0065002440000000005,1
2573,9.29718,-0.36611938,0.027023315,1
2574,9.285202,-0.27754209999999996,-0.049591064000000004,1
2575,9.23732,-0.210495,-0.08670044,1
2576,9.234924000000001,-0.18415833,-0.18008423,1
2577,9.215775,-0.19013977,-0.29859924,1
2578,9.225342,-0.29071045,-0.26507568,1
2579,9.251678,-0.39126587,-0.3764038,1
2580,9.291183,-0.4487152,-0.4817505,1
2581,9.295975,-0.42477417,-0.45899963,1
2582,9.23732,-0.51216125,-0.42549133,1
2583,9.268448,-0.5959625,-0.36083984,1
2584,9.319916000000001,-0.5935669,-0.3656311,1
2585,9.304352,-0.40802002,-0.33570862,1
2586,9.248092999999999,-0.30387878,-0.29380798,1
2587,9.199005,-0.20330810000000002,-0.22796631,1
2588,9.206192,-0.114730835,-0.23634338,1
2589,9.137955,-0.066848755,-0.18486023,1
2590,9.165497,-0.071640015,-0.19802856,1
2591,9.202606,-0.19972229,-0.3620453,1
2592,9.263657,-0.26675415,-0.372818,1
2593,9.272034,-0.19374084,-0.37521362,1
2594,9.305557,-0.09677124,-0.5068817,1
2595,9.227737,0.008575439,-0.5799103,1
2596,9.201400999999999,-0.050079346,-0.6708831999999999,1
2597,9.173874,-0.20930481,-0.61701965,1
2598,9.328292999999999,-0.35774229999999996,-0.6792755,1
2599,9.392944,-0.45350647,-0.8744049,1
2600,9.363022,-0.49061584,-1.0048828,1
2601,9.215775,-0.5744170999999999,-0.9869232,1
2602,9.164291,-0.63786316,-1.0012969999999999,1
2603,9.205002,-0.6354675,-1.188034,1
2604,9.244507,-0.58399963,-1.2012024,1
2605,9.348647999999999,-0.52293396,-1.2024078,1
2606,9.379776,-0.45829773,-0.98812866,1
2607,9.185837,-0.37091064,-0.8277129999999999,1
2608,9.115219,-0.32900999999999997,-0.77264404,1
2609,9.306747,-0.33380127,-0.73553467,1
2610,9.345061999999999,-0.4056244,-0.7846221999999999,1
2611,9.361816000000001,-0.37330627,-0.8025665,1
2612,9.157119999999999,-0.26316833,-0.77145386,1
2613,9.026627000000001,-0.124313354,-0.7127838000000001,1
2614,9.118805,-0.12310791,-0.8851776,1
2615,9.171478,-0.19853210000000002,-1.0168457,1
2616,9.29837,-0.23803711,-1.2167663999999998,1
2617,9.330688,-0.3182373,-1.5076599,1
2618,9.289992999999999,-0.34217834,-1.6537169999999999,1
2619,9.249298,-0.38526917,-1.6932220000000002,1
2620,9.188232000000001,-0.4738617,-1.5519562,1
2621,9.154724,-0.5049895999999999,-1.5232238999999999,1
2622,9.141556,-0.5444945999999999,-1.571106,1
2623,9.189438,-0.5648346,-1.4573822,1
2624,9.288788,-0.5708313,-1.4047089,1
2625,9.404907000000001,-0.53730774,-1.4466094999999999,1
2626,9.327103,-0.51934814,-1.5028687,1
2627,9.2708435,-0.49780273,-1.3197173999999998,1
2628,9.214569000000001,-0.4343567,-1.219162,1
2629,9.21936,-0.42237854,-1.1317749,1
2630,9.214569000000001,-0.36253357,-1.1210022,1
2631,9.228943,-0.3002777,-1.1030426000000002,1
2632,9.169083,-0.26914978,-1.100647,1
2633,9.215775,-0.25239563,-1.0551605,1
2634,9.17627,-0.25958252,-1.0958557,1
2635,9.17627,-0.16740417,-1.1545258,1
2636,9.214569000000001,-0.15423584,-1.1485290000000001,1
2637,9.249298,-0.10395813,-1.1485290000000001,1
2638,9.189438,-0.11114502,-1.140152,1
2639,9.173874,-0.12669373,-1.1150208000000001,1
2640,9.151123,-0.20211792,-1.1473388999999998,1
2641,9.148727000000001,-0.1877594,-1.2143707000000001,1
2642,9.199005,-0.17338562,-1.1066284,1
2643,9.267242,-0.24043274,-1.1174164,1
2644,9.257675,-0.22366333,-1.0958557,1
2645,9.225342,-0.25,-1.143753,1
2646,9.213379,-0.26316833,-1.0958557,1
2647,9.222961,-0.24043274,-1.0228424,1
2648,9.236130000000001,-0.23922729999999998,-0.9546051,1
2649,9.222961,-0.24162292,-0.97016907,1
2650,9.201400999999999,-0.24043274,-0.9079132,1
2651,9.136764999999999,-0.32421875,-0.90312195,1
2652,9.173874,-0.34338379999999996,-0.89834595,1
2653,9.266052,-0.32900999999999997,-0.93185425,1
2654,9.352234,-0.3481598,-1.0539703,1
2655,9.347458,-0.24520874,-1.0551605,1
2656,9.206192,-0.13867188,-0.9761504999999999,1
2657,9.222961,-0.04649353,-1.0551605,1
2658,9.159514999999999,-0.052474976,-1.1940308000000002,1
2659,9.117614999999999,-0.11592102,-1.234726,1
2660,9.193024000000001,-0.17459106,-1.1461333999999999,1
2661,9.282805999999999,-0.19853210000000002,-1.1964111000000002,1
2662,9.294785000000001,-0.210495,-1.1425476,1
2663,9.230133,-0.14704895,-1.1784668,1
2664,9.182250999999999,-0.1590271,-1.1353607,1
2665,9.205002,-0.16619873,-1.1664886,1
2666,9.234924000000001,-0.14944458,-1.1772614,1
2667,9.228943,-0.15542603,-1.1581116000000002,1
2668,9.212173,-0.102752686,-1.064743,1
2669,9.210983,-0.14704895,-0.98812866,1
2670,9.215775,-0.097976685,-1.0036774,1
2671,9.182250999999999,-0.16021729,-1.0216370000000001,1
2672,9.183456,-0.14346313,-1.0072784,1
2673,9.21936,-0.18057251,-0.9653778000000001,1
2674,9.260071,-0.19613647,-0.9450226,1
2675,9.23851,-0.20092773,-0.97735596,1
2676,9.201400999999999,-0.17817688,-0.9761504999999999,1
2677,9.187042,-0.16740417,-1.0108643,1
2678,9.199005,-0.13986206,-1.0767058999999999,1
2679,9.2313385,-0.14585876,-1.1545258,1
2680,9.251678,-0.16142273,-1.1365662,1
2681,9.227737,-0.18536377,-1.1329651,1
2682,9.242111,-0.21528625,-1.1616973999999998,1
2683,9.266052,-0.24880981,-1.0958557,1
2684,9.248092999999999,-0.30506897,-1.0719147,1
2685,9.258865,-0.2715454,-1.0192413,1
2686,9.274429,-0.25958252,-1.124588,1
2687,9.225342,-0.15184021,-1.0360107,1
2688,9.233734,-0.14585876,-1.0455780000000001,1
2689,9.212173,-0.13867188,-1.006073,1
2690,9.116408999999999,-0.09437561,-0.9246825999999999,1
2691,9.135558999999999,-0.07522583,-0.9007415999999999,1
2692,9.234924000000001,-0.119522095,-1.0479736,1
2693,9.212173,-0.124313354,-1.0874786,1
2694,9.196625,-0.083602905,-1.0743103,1
2695,9.261261,-0.05847168,-1.0814972,1
2696,9.225342,-0.05847168,-1.0551605,1
2697,9.200211,-0.050079346,-1.0395966,1
2698,9.157119999999999,-0.069244385,-1.0312195,1
2699,9.13916,-0.06324768,-1.0491791000000001,1
2700,9.173874,-0.074035645,-1.0312195,1
2701,9.187042,-0.078811646,-0.9809418,1
2702,9.201400999999999,-0.07762146,-0.9474181999999999,1
2703,9.23732,-0.1015625,-0.9402313,1
2704,9.330688,-0.093185425,-0.9641876,1
2705,9.25647,-0.16859436,-1.0228424,1
2706,9.218169999999999,-0.18655396,-1.0192413,1
2707,9.250488,-0.31942750000000003,-1.1197968,1
2708,9.262466,-0.35653687,-1.1293792999999999,1
2709,9.234924000000001,-0.3936615,-1.0910796999999999,1
2710,9.212173,-0.36253357,-1.0982513,1
2711,9.252884,-0.37210083,-1.0240326,1
2712,9.273239,-0.31942750000000003,-1.1473388999999998,1
2713,9.233734,-0.18894958,-1.1712798999999998,1
2714,9.166687,-0.08720398,-1.1257935,1
2715,9.143951,-0.00819397,-1.0180511,1
2716,9.12001,0.07800293,-1.0168457,1
2717,9.075714,0.20610046,-1.0503693,1
2718,9.093674,0.15701294,-1.0036774,1
2719,9.049377,0.1953125,-0.96777344,1
2720,9.147537,0.22644043,-0.98573303,1
2721,9.181061,0.20249939,-0.9845276,1
2722,9.243300999999999,0.11392212,-0.9653778000000001,1
2723,9.281616,0.02772522,-0.9809418,1
2724,9.285202,-0.0105896,-1.1257935,1
2725,9.141556,-0.124313354,-1.2048035,1
2726,9.17746,-0.16859436,-1.2706451,1
2727,9.179855,-0.27394104,-1.456192,1
2728,9.129578,-0.41160583,-1.480133,1
2729,9.203796,-0.51815796,-1.4107056,1
2730,9.249298,-0.63427734,-1.3304901000000002,1
2731,9.343857,-0.6139220999999999,-1.4394226,1
