,AccX[m/s^2],AccY[m/s^2],AccZ[m/s^2],label
0,8.896149000000001,-2.1737366000000002,1.4348145,1
1,8.896149000000001,-2.1737366000000002,1.4348145,1
2,8.44603,-1.9020080000000001,2.0166016,1
3,9.093674,-2.0851593,2.3912964,1
4,9.075714,-1.922348,1.6155701,1
5,8.438858,-2.20607,1.9232330000000002,1
6,9.363022,-2.0360718,1.6945801,1
7,8.729752000000001,-2.0348816000000003,1.2229156,1
8,8.831497,-1.7810974,1.3653716999999999,1
9,8.388580000000001,-1.8469391,1.2564392,1
10,9.3151245,-1.8337708,1.196579,1
11,8.46759,-1.9762268,1.5868378,1
12,8.967972,-1.5249176000000002,-0.5942688,1
13,8.5082855,-0.97065735,0.04258728,1
14,10.417664,-0.98861694,1.3833313,1
15,9.893326,-0.2607727,2.0249786,1
16,9.260071,-0.5648346,-0.5715332,1
17,10.3697815,-1.5823822,0.8266754000000001,1
18,9.504272,-1.9462891,0.5094452,1
19,8.483139,-1.1825409,0.15031433,1
20,9.694611,-1.5177307,0.7728119000000001,1
21,8.548981,-1.6733551,1.0158234,1
22,8.607650999999999,-1.4650573999999998,3.208908,1
23,9.955582000000001,-1.8660888999999998,-0.53681946,1
24,9.328292999999999,-1.9822083,1.2528534,1
25,9.543777,-1.9115753,1.5030518,1
26,8.690247,-2.2551422000000003,0.7428894,1
27,9.318726,-1.6110992,0.28918457,1
28,9.212173,-1.2435913,-0.05079651,1
29,8.1922455,-0.8533478000000001,0.760849,1
30,8.399353,-0.49899292,0.9092865,1
31,9.974731,-1.2747191999999998,1.2696075,1
32,10.00705,-1.3058471999999999,0.22932434,1
33,9.576096000000001,-1.8002471999999998,0.16947937,1
34,9.122391,-0.46308900000000003,0.17306519,1
35,8.605255,-0.33380127,1.2432709,1
36,8.639969,-0.29788208,0.30474854,1
37,9.072113,-0.6917267,-0.16212463,1
38,8.939239500000001,-1.1957091999999998,0.7536621,1
39,8.7608795,-0.8712921,0.8195038,1
40,8.939239500000001,-0.35653687,1.2672119,1
41,9.410903999999999,-0.4954071,0.66267395,1
42,9.267242,-0.14106749999999998,0.19342041,1
43,8.960785000000001,-0.9586792,2.6103668,1
44,7.238159,-0.43914795,1.0086365,1
45,8.692642,-1.7427826000000002,1.176239,1
46,8.560959,-2.2527466,-1.2490845,1
47,10.100433,-1.3226013,0.91885376,1
48,9.418076,-0.6366729999999999,0.7536621,1
49,9.205002,-0.57681274,2.5385437,1
50,10.633133,0.30784607,0.117996216,1
51,9.585678,-0.96347046,1.0565186000000002,1
52,8.829102,-1.6230774,0.8877411000000001,1
53,9.390549,-1.6158905000000001,0.35263062,1
54,9.137955,-1.0712128,0.6674651999999999,1
55,8.623199000000001,-0.5504760999999999,1.2648163000000001,1
56,10.554138,-0.78271484,0.022232056,1
57,8.619614,-0.40203857,0.20898438,1
58,8.146759,-0.29908752,0.6710663,1
59,9.202606,-0.9084015,0.26045227,1
60,9.104446000000001,-1.2615508999999998,0.44720459999999995,1
61,8.461594,-0.4487152,-0.06636047,1
62,10.344635,0.70887756,-1.6992035,1
63,8.529831,-1.2902832,-0.9941101000000001,1
64,8.92128,-1.0616302,-0.28662109999999996,1
65,10.71814,-1.4255524,0.98350525,1
66,10.5278015,-0.5540619000000001,-0.16931152,1
67,9.947205,-0.1925354,-0.1776886,1
68,9.171478,0.49699402,-0.30458070000000004,1
69,8.965575999999999,0.49459840000000005,-0.44822693,1
70,8.668700999999999,0.00019836426,-0.012481688999999999,1
71,9.067337,0.08998108,-1.0898743,1
72,8.542999,-0.9586792,-1.8440552,1
73,7.906142999999999,-0.9107970999999999,0.019836426,1
74,9.407303,-0.06324768,-1.104248,1
75,9.252884,0.2635498,-0.40753174,1
76,8.969161999999999,0.46466064,-0.68644714,1
77,8.788406,0.24679565,-0.82650757,1
78,8.950012,0.013366699,-1.1078339,1
79,9.275619500000001,-0.14704895,-1.1868439,1
80,9.685027999999999,-0.10395813,-1.0503693,1
81,9.948395,0.08758545,-0.9186859,1
82,9.718552,0.18214417,-1.0192413,1
83,9.091277999999999,0.34854126,-1.1054382,1
84,8.376602,0.79626465,-1.6405487,1
85,8.167114,1.3205871999999999,-2.1325529999999997,1
86,8.286819,1.7551421999999999,-2.1732482999999996,1
87,8.311966,1.8317566000000003,-2.483307,1
88,7.9228973,1.703659,-2.934616,1
89,7.3578644,1.1601868,-3.3188782,1
90,7.488357499999999,-0.064453125,-3.9138336000000002,1
91,8.320343,-1.4530945,-3.851593,1
92,8.814743,-2.7663116000000003,-3.7426453,1
93,9.650314,-3.1733246,-4.0946045,1
94,9.021835000000001,-2.432312,-4.0706635,1
95,7.6200410000000005,-1.7272186,-3.8623657,1
96,6.7557220000000004,-1.3357697,-3.9712982000000006,1
97,6.270904499999999,-1.285492,-3.6684265,1
98,6.4851837,-1.9786224,-3.6576538,1
99,6.920928999999999,-2.6094817999999997,-3.7797546000000004,1
100,7.0394440000000005,-2.6956787,-4.2298737,1
101,6.839523299999999,-2.3521118,-4.5111847,1
102,6.403778,-1.5835723999999998,-5.0319366,1
103,6.422943,-0.8270110999999999,-5.306061,1
104,6.8754425,0.074417114,-5.701111,1
105,7.354278599999999,0.9351349,-6.728225699999999,1
106,7.732558999999999,-0.038116455,-6.911377000000001,1
107,8.553772,-1.313034,-6.4576720000000005,1
108,8.677078,-1.9450988999999999,-6.495987,1
109,8.018677,-1.601532,-6.9532776,1
110,6.6611633,-1.1011353000000002,-5.7358246,1
111,6.2086487,-0.39245605,-7.307617,1
112,7.095703,-0.4487152,-7.2932587,1
113,8.789597,0.07202148400000001,-7.4895782,1
114,9.825104,0.40600586,-7.4009857000000006,1
115,9.330688,0.10194397,-6.958069,1
116,8.436461999999999,-0.26795959999999996,-6.578583,1
117,6.9400787,-0.093185425,-6.347549400000001,1
118,6.0482483,0.20729065,-6.0195313,1
119,5.5753937,0.4766388,-5.8734894,1
120,5.667572,0.42277527,-5.9249725,1
121,5.589752,-0.08958435,-5.805251999999999,1
122,5.2198486,-0.49421692,-6.021927,1
123,5.106125,-0.5157623,-6.1584015,1
124,5.1911163,-0.3002777,-6.191925,1
125,5.387436,-0.23443604,-6.4900055,1
126,5.628067,-0.085998535,-6.3367615,1
127,5.558624299999999,0.03012085,-6.626465,1
128,5.476028400000001,-0.5313263,-6.3319855,1
129,5.6651764,-1.2771149,-6.784485000000001,1
130,5.4077910000000005,-1.3716888,-6.4038086,1
131,5.186325,-0.41520690000000005,-6.4205627,1
132,5.376663,-0.09677124,-6.1607970000000005,1
133,6.164367700000001,-0.26795959999999996,-6.267334,1
134,6.695877,-0.783905,-6.2050934,1
135,6.996353,-0.7408142,-6.3810577,1
136,6.777282700000001,-0.46548462,-6.235016000000001,1
137,6.53067,-0.65940857,-5.10376,1
138,6.7090454,-0.26437378,-6.1284790000000005,1
139,6.7605133,-0.29309082,-6.166778599999999,1
140,7.161544999999999,-0.31225586,-5.673568700000001,1
141,7.575744599999999,-0.45350647,-5.8806763,1
142,7.8798065,-0.89404297,-5.772933999999999,1
143,7.569763000000001,-0.95269775,-5.010376,1
144,7.448852499999999,-0.6498413000000001,-4.911026000000001,1
145,7.578140299999999,-0.3589325,-5.6963196,1
146,8.007904,-0.7910919,-5.7489930000000005,1
147,8.155136,-1.6661682,-4.9684753,1
148,8.672286999999999,-1.6123047,-3.3236693999999996,1
149,10.359009,-1.5416718,-2.4461975,1
150,14.645828,-0.8856659,-1.480133,1
151,19.292969,-0.5540619000000001,-2.9908752,1
152,18.715957999999997,-1.0436859,-6.195511,1
153,17.077133,-1.2124786,-6.354721,1
154,15.489776999999998,-0.51934814,-4.19516,1
155,12.08403,-0.36372375,-3.3547974000000003,1
156,8.317947,0.0037841796999999997,-1.8332825000000001,1
157,5.061828599999999,0.56163025,0.9918823,1
158,2.3791351,0.7830963000000001,2.8342132999999996,1
159,0.65411377,0.66218567,2.7839355,1
160,1.3041382,0.32460022,1.0708923000000001,1
161,5.076202400000001,-0.100372314,-0.42907715,1
162,9.291183,-0.30387878,-0.6266022,1
163,15.232407,-0.11831665,-0.36083984,1
164,16.192474,-0.6797638,-1.8895416,1
165,13.203307999999998,-2.0600128,-0.803772,1
166,11.012619,-2.0037537,-0.2064209,1
167,9.044586,-0.7671509,0.5884552,1
168,8.021072,0.50416565,0.8422394,1
169,6.4241333,1.7000732,1.1499023000000002,1
170,5.260544,1.4055939,1.3569946000000002,1
171,6.510330000000001,-0.00819397,0.63275146,1
172,8.82193,-1.0975494,0.5704956,1
173,10.214157,-1.7619476000000003,0.1539154,1
174,10.730103,-1.5476531999999998,0.42445374,1
175,10.623566,-0.88446045,0.96435547,1
176,9.898117,-0.9574889999999999,1.0720825,1
177,8.824326,-1.1609955,1.3330536,1
178,8.054580999999999,-1.0305176,1.5497284,1
179,7.877411,-0.8018645999999999,1.4431915000000002,1
180,8.084518,-0.83299255,1.176239,1
181,8.566939999999999,-1.0604401,0.9344177,1
182,9.003891000000001,-1.2711333999999999,0.7464751999999999,1
183,9.529419,-1.190918,0.79196167,1
184,9.717361,-0.9934082000000001,0.84584045,1
185,9.062546000000001,-0.7910919,0.15151978,1
186,9.63237,-0.6713866999999999,0.9859009,1
187,10.733688,-0.86172485,1.2013702,1
188,10.236892999999998,-0.5277251999999999,0.45318604,1
189,8.801575,-0.026138306,0.04498291,1
190,8.461594,0.13665771,-0.39076233,1
191,8.788406,-0.00819397,-1.0982513,1
192,9.070922999999999,-0.29071045,-2.2223357999999998,1
193,9.489914,-0.46667479999999995,-2.65448,1
194,10.021423,-0.39126587,-2.840042,1
195,9.711364999999999,-0.4559021,-2.5359802000000005,1
196,9.471954,-0.61750793,-2.5623169999999997,1
197,9.717361,-0.660614,-2.428238,1
198,9.723343,-0.49780273,-2.4342194,1
199,9.437241,-0.5600586,-2.4497833,1
200,9.184647,-0.6031494000000001,-2.8424377,1
201,9.051772999999999,-0.72883606,-2.7430725,1
202,9.222961,-1.249588,-2.460556,1
203,9.402527000000001,-0.8868560999999999,-2.1936035,1
204,9.115219,-1.0556488000000002,-1.4262542999999999,1
205,9.021835000000001,-1.1286774,-1.0192413,1
206,9.322311000000001,-1.2926788,-0.41232299999999994,1
207,9.716156,-1.1645813,0.49150085,1
208,9.330688,-1.2400055,0.66986084,1
209,8.970367,-1.1478271,0.7859802,1
210,8.527435,-1.3968201,0.44480896,1
211,8.497513,-1.8373566000000003,-0.34169006,1
212,8.92128,-1.5763855,-0.84446716,1
213,9.576096000000001,-1.214859,-0.8684082000000001,1
214,10.178238,-1.4626617,-0.748703,1
215,10.404494999999999,-1.8505249,-0.6337738,1
216,9.694611,-2.0025635,-0.7858124,1
217,8.702209,-1.5596313,-0.5823059,1
218,8.040222,-1.0113524999999999,0.05934143,1
219,7.5039215,-0.6246948,0.8266754000000001,1
220,8.687851,-0.9610748,0.30593872,1
221,9.199005,-1.6374358999999998,-0.39076233,1
222,9.451599,-2.2826842999999997,-0.60983276,1
223,9.807144000000001,-2.2922516,-0.3440857,1
224,9.748489,-1.7320098999999998,-0.09628296,1
225,9.477936,-1.333374,0.32868958,1
226,9.274429,-1.1406403,0.7117614999999999,1
227,8.772842,-1.0580444,0.9811095999999999,1
228,8.423294,-0.9610748,0.6854248000000001,1
229,8.303574000000001,-0.81144714,0.5381775,1
230,8.886566,-0.6821594,0.27720642,1
231,9.179855,-0.7671509,0.5262146,1
232,9.639542,-0.78630066,0.39453125,1
233,10.030991,-0.6187134,0.11441040000000001,1
234,9.764038000000001,-0.71328735,0.8601989999999999,1
235,8.478363,-0.9251709000000001,0.8254851999999999,1
236,7.699051,-1.6601868000000002,0.7931670999999999,1
237,8.267669999999999,-2.4143677,0.80752563,1
238,10.458359,-2.0767822,1.9914551,1
239,10.713348,-1.5452728,1.9471741000000002,1
240,10.002274,-1.1873322,0.15750122,1
241,9.529419,-1.3214111000000002,-0.29499817,1
242,9.361816000000001,-1.285492,0.070114136,1
243,8.886566,-1.3393707000000001,0.91526794,1
244,8.546585,-1.4506989,1.4515686,1
245,8.564544999999999,-1.6063232,1.504242,1
246,8.465195,-1.5919495000000001,1.4635468,1
247,8.795592999999998,-1.4806213,1.552124,1
248,8.671097,-1.3752746999999999,1.4168549,1
249,8.855438000000001,-1.3465424,1.1223602,1
250,9.352234,-1.4566803,0.8997040000000001,1
251,9.272034,-1.7212372,0.80513,1
252,9.762848,-1.7068787,0.8601989999999999,1
253,9.895721,-1.625473,0.72732544,1
254,9.657501,-1.6278687,0.76322937,1
255,9.185837,-1.7727203,1.1738434,1
256,9.005081,-1.8182068,1.3869323999999998,1
257,9.099655,-1.6422272,1.6694488999999997,1
258,8.650742,-1.6733551,1.686203,1
259,8.371811,-1.5512542999999999,1.6754303,1
260,8.406525,-1.3609161,1.9232330000000002,1
261,8.606444999999999,-1.1705780000000001,1.8813324,1
262,8.955994,-1.0388947,1.5892334,1
263,9.008666999999999,-1.2639465,1.8226776000000002,1
264,9.319916000000001,-1.3692932,1.6059875,1
265,9.2708435,-1.31781,1.4982605,1
266,9.25647,-1.0544586,1.5557098,1
267,9.307953,-1.0400848,1.3617858999999999,1
268,9.221756,-1.0388947,1.552124,1
269,9.019455,-1.1047363000000001,1.1115875,1
270,8.806366,-1.2424011000000001,1.4755096,1
271,9.336685000000001,-0.95988464,1.3857268999999999,1
272,8.923675999999999,-1.0041809000000002,1.3522034,1
273,8.837494,-1.0460815,1.5940246999999999,1
274,9.15831,-0.96347046,1.1989746000000001,1
275,9.250488,-0.76116943,1.7759857,1
276,9.221756,-0.6833496,1.3330536,1
277,8.80397,-0.6330719,1.5413513,1
278,8.578918,-0.58399963,1.373764,1
279,9.029022,-0.6246948,1.3534088,1
280,8.908112,-0.6438446,1.2696075,1
281,9.369003,-0.4451294,1.4958649,1
282,9.142746,-0.50857544,1.033783,1
283,9.240905999999999,-0.40682983,1.112793,1
284,9.026627000000001,-0.7695465,0.6255646,1
285,9.843048,-0.44033813,0.42445374,1
286,9.51265,-0.38168335,0.5848694000000001,1
287,9.003891000000001,-0.86172485,0.18383789,1
288,9.279221000000001,-0.92396545,0.30714417,1
289,10.002274,-0.8593291999999999,1.04216,1
290,9.157119999999999,-0.7527771,0.8218994000000001,1
291,8.978744500000001,-0.8569336,0.60162354,1
292,8.801575,-0.80426025,1.0840607,1
293,8.788406,-0.73602295,1.1905975,1
294,8.697433,-0.86531067,0.9715271000000001,1
295,8.84108,-1.1011353000000002,0.55374146,1
296,9.227737,-1.0460815,0.53100586,1
297,9.674255,-1.0089569,0.24609375,1
298,9.962769,-0.6582184,0.19581604,1
299,9.839462,-0.34338379999999996,0.22215271,1
300,9.615601,-0.17219543,0.2915802,1
301,9.236130000000001,-0.32661438,0.22932434,1
302,8.911713,-0.6725769,0.39453125,1
303,8.8051605,-0.97424316,0.6961975,1
304,8.845871,-1.0712128,0.78956604,1
305,9.011063,-1.0580444,0.9104767,1
306,9.182250999999999,-1.0400848,0.83984375,1
307,9.328292999999999,-0.8964386000000001,0.7728119000000001,1
308,9.258865,-0.7216644,0.7428894,1
309,9.173874,-0.63905334,0.9822998,1
310,9.0577545,-0.5672302,1.0242004,1
311,9.105637,-0.6246948,1.1594696000000002,1
312,9.195419000000001,-0.8665161,1.236084,1
313,9.115219,-0.9251709000000001,0.978714,1
314,9.0577545,-0.5564574999999999,0.43403625,1
315,9.342667,0.23602295,0.04258728,1
316,9.346252,0.1905365,-0.1309967,1
317,9.402527000000001,-0.289505,-0.007690429699999999,1
318,9.446808,-0.7384185999999999,0.36819458,1
319,9.402527000000001,-0.8712921,0.350235,1
320,9.203796,-0.289505,0.25086975,1
321,8.957199000000001,-0.32421875,0.39572144,1
322,9.06015,-0.8162384,0.62197876,1
323,9.230133,-0.98861694,0.53219604,1
324,9.613205,-0.6534270999999999,0.23292542,1
325,9.579697,-0.34217834,0.27960205,1
326,9.273239,-0.47625732,0.69140625,1
327,9.063736,-0.75398254,0.7931670999999999,1
328,8.975159,-1.0843811,0.74168396,1
329,9.080505,-0.92996216,0.60162354,1
330,9.246902,-0.35295105,0.8422394,1
331,9.031417999999999,-0.4379425,0.96195984,1
332,8.975159,-0.6989135999999999,0.82907104,1
333,9.390549,-0.9574889999999999,0.62197876,1
334,9.776016,-0.7001189999999999,0.38974000000000003,1
335,9.771225,-0.102752686,0.24728394,1
336,9.482727,0.22644043,0.47952269999999997,1
337,9.163101,0.12109375,0.6950073,1
338,8.990723,-0.47146606,1.0074463,1
339,8.978744500000001,-0.7048949999999999,1.2025757,1
340,8.995499,-0.7228545999999999,1.1882019,1
341,9.030228,-0.43196106,1.1499023000000002,1
342,9.167892,-0.14346313,1.112793,1
343,9.361816000000001,-0.038116455,1.0577239999999999,1
344,9.307953,-0.071640015,0.75964355,1
345,9.069733,-0.25,0.5190277,1
346,9.135558999999999,-0.20330810000000002,0.45916748,1
347,9.324707,-0.026138306,0.5980376999999999,1
348,9.440826,-0.045303345,0.68782043,1
349,9.380966,-0.24520874,0.6710663,1
350,9.0793,-0.47984314,0.4040985,1
351,9.264847,-0.6833496,0.11441040000000001,1
352,9.513855,-0.41879272,0.17066956,1
353,9.631165,-0.16979979999999997,0.6064148,1
354,8.899734500000001,-0.19732666,0.6782379,1
355,8.264084,-0.7264556999999999,0.33227540000000005,1
356,8.942825,-0.9539032,0.38974000000000003,1
357,9.588074,-0.38287354,0.7033844,1
358,9.702988000000001,0.112716675,0.9416046,1
359,9.633560000000001,0.081588745,0.78837585,1
360,9.601242,-0.24281311,0.60401917,1
361,9.169083,-0.27035522,0.7225342,1
362,8.724960000000001,-0.18655396,0.9320221,1
363,8.460403,-0.083602905,1.1139832,1
364,8.680664,0.091171265,1.0708923000000001,1
365,9.127182000000001,0.34854126,1.0756836,1
366,9.209793,0.39164734,1.0984192,1
367,9.194229,-0.05368042,1.0804749,1
368,9.218169999999999,-0.60913086,1.1846161,1
369,9.355835,-0.8018645999999999,1.2624207,1
370,9.373795,-0.6151123000000001,1.0218048,1
371,9.074508999999999,-0.38287354,0.9751281999999999,1
372,9.064941000000001,-0.23443604,1.0673065000000002,1
373,9.23732,-0.12669373,1.1463013000000002,1
374,9.036209,-0.117126465,0.9487915000000001,1
375,8.997894,-0.26795959999999996,0.8123169,1
376,9.159514999999999,-0.47505188,0.8614044,1
377,9.243300999999999,-0.71806335,0.87457275,1
378,9.227737,-0.94911194,0.8661804,1
379,9.1128235,-1.1490326000000002,0.8374634,1
380,9.093674,-1.2184601000000002,0.77760315,1
381,9.123596000000001,-1.2268371999999999,0.844635,1
382,9.154724,-1.2388,0.8302765,1
383,9.0972595,-1.0951538,0.7752074999999999,1
384,9.056564,-0.71687317,0.50704956,1
385,9.190628,-0.5384979,0.31552124,1
386,9.268448,-0.30267334,0.15031433,1
387,9.410903999999999,-0.28112793,0.1431427,1
388,9.475539999999999,-0.31105042,0.091659546,1
389,9.228943,-0.41760254,0.21376038,1
390,9.1128235,-0.55166626,0.18862915,1
391,9.346252,-0.5780029000000001,-0.04840088,1
392,9.369003,-0.6426544,-0.1309967,1
393,9.352234,-0.6725769,0.036590576,1
394,9.324707,-0.6833496,0.21376038,1
395,9.25647,-0.6031494000000001,0.23171997,1
396,9.254074000000001,-0.40682983,0.171875,1
397,9.196625,-0.12908936,0.17066956,1
398,9.151123,0.117507935,0.19102478,1
399,9.06015,-0.112335205,0.06413269,1
400,9.12001,-0.3984375,-0.56674194,1
401,9.506668,-1.0628357,-1.4190826,1
402,10.252457000000001,-1.5536499,-2.302536,1
403,11.293944999999999,-1.9175567999999998,-2.728714,1
404,11.347809,-1.3118286,-3.405075,1
405,10.959946,0.2240448,-3.5978087999999997,1
406,10.20697,1.4762115,-2.5802612000000003,1
407,8.807556,0.6430359,-2.0116425,1
408,7.580536,-1.3381653,-2.670044,1
409,6.4313199999999995,-1.8804473999999998,-3.8827057000000003,1
410,6.225418,-0.94192505,-3.6217498999999997,1
411,6.0578156,-0.05847168,-2.761032,1
412,6.4408875,0.25517273,-2.3145142000000005,1
413,6.8718414,0.9506836,-2.3540192,1
414,7.354278599999999,1.3636932,-2.1493073,1
415,8.103667999999999,1.0704040000000001,-1.4777374,1
416,7.986343400000001,0.8237915000000001,-0.8396759,1
417,8.198242,1.0153351000000002,-0.92108154,1
418,8.983536,1.4199524,-1.1676941,1
419,10.471527,2.2543335,-2.0834656000000003,1
420,11.270004,3.0839232999999995,-2.488083,1
421,11.490264999999999,3.0180817,-2.5048522999999996,1
422,11.888900999999999,2.090332,-3.1907806,1
423,11.480682,1.437912,-3.1871948,1
424,11.013824000000001,0.80584717,-2.8639832000000003,1
425,9.857422,0.21806335,-2.1181793,1
426,8.722565,-0.093185425,-1.5124511999999999,1
427,7.9923399999999996,-0.24281311,-0.41949463,1
428,6.7569275,0.27671814,0.16947937,1
429,6.8562927,0.7579498,-0.39794922,1
430,7.502716,0.9399109,-1.3664093000000002,1
431,8.780028999999999,1.1230774,-1.7255401999999997,1
432,10.16507,1.0572357,-1.4956969999999998,1
433,10.928818,0.4766388,-1.234726,1
434,10.452377,-0.10635376,-1.3316956,1
435,9.220566,0.031311035,-0.45420837,1
436,8.363434,0.45388794,0.3418579,1
437,8.110855,0.6214905,0.44001769999999996,1
438,8.44603,0.8453521999999999,0.1874237,1
439,8.970367,0.8046416999999999,-0.07952881,1
440,9.424072,0.36410522,0.22215271,1
441,9.974731,0.17018127,0.40769958,1
442,9.146347,0.6178894,0.176651,1
443,8.07254,1.1350403,0.10243225,1
444,9.4133,1.0440674,0.35263062,1
445,10.154297,0.7304229999999999,0.16468811,1
446,10.173447,0.29588318,-0.0340271,1
447,9.748489,-0.5361023,-0.087905884,1
448,9.159514999999999,-1.6458282,0.07849121,1
449,8.951217999999999,-1.9642487000000002,0.15031433,1
450,9.155914,-1.5380858999999998,-0.19204712,1
451,8.987122,-0.9957886,-0.60743713,1
452,9.250488,-0.9622803,-0.9007415999999999,1
453,9.668274,-1.0161438,-1.2251433999999999,1
454,9.850235000000001,-0.76116943,-1.4370421999999998,1
455,9.754471,-0.42358398,-1.1760712,1
456,9.6622925,-0.39485168,-0.5799103,1
457,9.779602,-0.6929320999999999,-0.18367004,1
458,9.063736,-0.9287566999999999,-0.3297119,1
459,9.046982,-1.1023406999999998,0.38734436,1
460,8.860229499999999,-1.3980255,0.66267395,1
461,9.234924000000001,-1.1813506999999999,0.6471100000000001,1
462,9.202606,-0.72525024,0.33348083,1
463,9.049377,-0.19493103,-0.21479797,1
464,9.295975,-0.21289063,0.079696655,1
465,9.73172,-0.6929320999999999,0.20059204,1
466,9.628769,-0.97065735,0.30116272,1
467,9.318726,-0.70610046,0.84584045,1
468,9.202606,-0.79348755,1.0397644,1
469,8.641159,-0.7001189999999999,0.6710663,1
470,8.651932,-0.62350464,1.0146332,1
471,9.159514999999999,-0.89045715,1.1858063,1
472,8.955994,-0.7623595999999999,1.1499023000000002,1
473,9.020645,-0.6426544,1.6215515,1
474,9.153519000000001,-0.5600586,1.4120636,1
475,8.783615,-0.64624023,1.112793,1
476,8.668700999999999,-0.5756073,1.0864563,1
477,9.420471000000001,-0.31225586,1.3857268999999999,1
478,9.843048,-0.23922729999999998,1.2229156,1
479,9.610809,-0.31105042,0.87934875,1
480,9.008666999999999,-0.16500854,1.1271514999999999,1
481,8.595673,0.0025787354,1.5401611000000002,1
482,8.485535,0.02772522,1.9136505000000001,1
483,8.782425,-0.35534668,2.1530762,1
484,9.105637,-0.59835815,1.9902648999999997,1
485,9.408508,-0.7491913,2.0237884999999998,1
486,9.610809,-0.7276459,1.7352753,1
487,9.522232,-0.4954071,1.6598663,1
488,9.3103485,0.040893555,1.4587555,1
489,8.812347,0.4658661,1.5186005,1
490,8.456802,0.7627411000000001,1.662262,1
491,8.625595,0.7866820999999999,1.7460631999999998,1
492,8.855438000000001,0.58917236,1.7508392,1
493,9.304352,0.31742859999999995,1.7137299,1
494,9.47435,0.33657837,1.7652130000000001,1
495,9.343857,0.44671629999999996,1.9950561999999998,1
496,8.929672,0.5305023,1.9806824,1
497,8.891357000000001,0.61909485,2.180603,1
498,8.908112,0.65141296,2.4044647,1
499,9.181061,0.45388794,2.3984832999999997,1
500,9.191833500000001,0.33418274,1.928009,1
501,9.324707,0.26475525,1.413269,1
502,8.958389,0.49459840000000005,1.4192505,1
503,8.683060000000001,0.7591553000000001,2.299118,1
504,8.605255,0.62986755,2.8856964,1
505,8.575317,0.27792358,2.7755585,1
506,8.07254,0.47424316,2.8545685,1
507,7.775665299999999,0.64183044,2.7408447,1
508,8.050995,0.64183044,2.6235352,1
509,8.513077000000001,0.5843811,2.3158722000000003,1
510,8.703415,0.9686431999999999,1.8908996999999999,1
511,9.321121,1.7204285,2.251236,1
512,9.808334,1.5312805,2.3362274,1
513,9.091277999999999,1.1278534,2.026184,1
514,8.303574000000001,1.4091797,2.8629456,1
515,8.693832,0.9195709000000001,3.3956604,1
516,9.210983,0.54008484,3.2173004,1
517,8.80397,0.5568390000000001,2.6079712,1
518,7.7517242,1.1386413999999998,2.4954376,1
519,7.564972,1.1984863000000001,2.9575195,1
520,7.7924194,0.93751526,2.833023,1
521,8.07373,1.0763855,2.7348632999999998,1
522,8.929672,0.50057983,3.1861725,1
523,9.500687,0.016952515,3.0389252,1
524,9.849045,0.3964386,2.7300720000000003,1
525,9.815521,1.4115753,2.3254547000000003,1
526,9.049377,2.3141937,2.3338318,1
527,8.243729,2.2986298,2.5576935,1
528,8.100067,1.4271393,2.8988647000000003,1
529,8.730942,0.635849,2.7480316000000005,1
530,9.301956,0.13786316,2.5277557,1
531,9.420471000000001,-0.07641601599999999,2.3912964,1
532,9.051772999999999,-0.057266235,2.4403687,1
533,8.672286999999999,-0.124313354,2.5540924,1
534,8.523849499999999,-0.14465332,2.7073212000000004,1
535,8.754883,-0.08480835,2.5612793,1
536,8.914108,0.03251648,2.4212189,1
537,9.039795,0.086380005,2.2919312,1
538,8.996704,0.05406189,2.1626434,1
539,8.966782,0.13067627,2.101593,1
540,8.932053,0.105529785,2.069275,1
541,8.988327,0.11152649,2.2392578,1
542,9.043396000000001,0.14025879,2.2536316000000003,1
543,8.950012,0.17497253,2.3434142999999996,1
544,8.831497,0.03970337,2.3374175999999998,1
545,8.801575,-0.009384155,2.3577728,1
546,8.812347,-0.057266235,2.2560272,1
547,9.0733185,-0.05607605,2.20813,1
548,9.200211,-0.01776123,2.0884247,1
549,9.055359,0.07081604,1.9447784,1
550,9.135558999999999,0.0061798096,2.0357513,1
551,9.141556,-0.06324768,2.0848389,1
552,9.155914,-0.18415833,2.1231383999999998,1
553,9.005081,-0.15782166,2.0417328,1
554,9.009872,-0.097976685,1.904068,1
555,9.006287,-0.12908936,1.7735901,1
556,9.062546000000001,-0.14944458,1.7460631999999998,1
557,9.064941000000001,-0.22605896,1.5497284,1
558,9.075714,-0.16381836,1.3474274,1
559,9.197815,-0.117126465,1.1822205,1
560,9.274429,-0.095581055,1.0481415,1
561,9.281616,-0.10395813,0.84703064,1
562,9.196625,-0.14944458,0.7692260999999999,1
563,9.108032000000001,-0.21409607,0.6531066999999999,1
564,9.125992,-0.29548645,0.6279602,1
565,9.185837,-0.42956543,0.57170105,1
566,9.313934,-0.47505188,0.44480896,1
567,9.359421000000001,-0.50857544,0.38615417,1
568,9.321121,-0.49421692,0.30474854,1
569,9.337875,-0.4954071,0.28799438,1
570,9.330688,-0.37091064,0.32629395,1
571,9.342667,-0.25479126,0.34544373,1
572,9.33429,-0.090789795,0.34065247,1
573,9.327103,0.14144897,0.103637695,1
574,9.23851,0.13067627,0.16587829999999998,1
575,9.153519000000001,0.0756073,0.34065247,1
576,9.203796,0.03491211,0.51065063,1
577,9.230133,-0.0105896,0.51423645,1
578,9.212173,-0.14704895,0.33348083,1
579,9.208588,-0.34217834,0.37417603,1
580,9.306747,-0.33259583,0.6818390000000001,1
581,9.37619,-0.28710938,1.0218048,1
582,9.330688,-0.36372375,0.9775238000000002,1
583,9.222961,-0.38287354,0.9918823,1
584,9.105637,-0.21409607,0.9116820999999999,1
585,9.058945,-0.109939575,0.9427948,1
586,9.115219,-0.006988525400000001,0.9344177,1
587,9.042191,0.04808044400000001,0.9032898000000001,1
588,8.984726,0.076812744,0.83506775,1
589,9.087677000000001,0.0013885498,0.6100005999999999,1
590,9.333084,0.20249939,0.4328308,1
591,9.343857,0.40242004,0.28559875,1
592,9.358231,0.36650085,0.20179749,1
593,9.321121,0.49938965,0.18025208,1
594,9.230133,0.5233306999999999,0.18504333,1
595,9.103241,0.512558,0.28320313,1
596,9.006287,0.51493835,0.42684937,1
597,8.92128,0.5352935999999999,0.6531066999999999,1
598,9.015854,0.42755127,0.95835876,1
599,9.172684,0.27911377,1.0493469,1
600,9.224152,0.17736816,1.0313873,1
601,9.129578,0.20249939,0.89730835,1
602,9.157119999999999,0.20489502,0.8015441999999999,1
603,9.171478,0.31622314,0.666275,1
604,9.266052,0.35214233,0.59324646,1
605,9.3151245,0.43713379999999996,0.41966248,1
606,9.17627,0.4299469,0.46037292,1
607,9.025436000000001,0.36410522,0.5704956,1
608,8.964386,0.17018127,0.6279602,1
609,9.093674,0.03970337,0.6483154000000001,1
610,9.260071,0.03730774,0.54296875,1
611,9.3498535,0.060043335,0.43643188,1
612,9.358231,0.02772522,0.3933258,1
613,9.363022,-0.035720825,0.35263062,1
614,9.044586,-0.012969971,0.33587646,1
615,8.966782,0.03491211,0.5704956,1
616,9.151123,0.083984375,0.9416046,1
617,9.281616,0.17855835,1.1068115,1
618,9.342667,0.20968628,1.0170288,1
619,9.189438,0.08758545,1.1044159,1
620,9.032608,-0.2212677,1.4407959,1
621,9.027832,-0.4343567,1.5198059,1
622,9.072113,-0.35295105,1.3617858999999999,1
623,9.1128235,-0.12789917,1.1439209,1
624,9.127182000000001,-0.02734375,1.12117,1
625,9.262466,-0.040512085,1.136734,1
626,9.333084,-0.19374084,1.0876465,1
627,9.207397,-0.21409607,0.95596313,1
628,9.026627000000001,-0.28352356,1.0565186000000002,1
629,9.130783000000001,-0.19374084,1.176239,1
630,9.288788,-0.07762146,1.0074463,1
631,9.353439,-0.064453125,0.8925171000000001,1
632,9.274429,-0.14585876,0.7404938,1
633,9.278015,-0.23324585,0.7799988,1
634,9.197815,-0.35774229999999996,0.6674651999999999,1
635,9.161896,-0.36732483,0.7404938,1
636,9.160706,-0.34457397,0.7069701999999999,1
637,9.191833500000001,-0.3541565,0.6961975,1
638,9.244507,-0.42837524,0.6758423000000001,1
639,9.225342,-0.43077087,0.6207885999999999,1
640,9.250488,-0.3876648,0.6279602,1
641,9.214569000000001,-0.36132813,0.60762024,1
642,9.245697,-0.24401855,0.5573273,1
643,9.321121,-0.20570374,0.49150085,1
644,9.281616,-0.14704895,0.45916748,1
645,9.222961,-0.117126465,0.45079040000000004,1
646,9.147537,-0.026138306,0.5094452,1
647,9.128387,0.04927063,0.49508667,1
648,9.147537,0.10314941400000001,0.429245,1
649,9.175064,0.03012085,0.44122314,1
650,9.196625,-0.02734375,0.46037292,1
651,9.29837,-0.085998535,0.38015747,1
652,9.299576,-0.085998535,0.30714417,1
653,9.23732,-0.057266235,0.21376038,1
654,9.181061,-0.05128479,0.18383789,1
655,9.212173,0.02532959,0.067718506,1
656,9.262466,0.112716675,-0.018478394,1
657,9.269638,0.13786316,-0.10346985,1
658,9.233734,0.19412231,-0.17289734,1
659,9.261261,0.2192688,-0.28063965,1
660,9.285202,0.27792358,-0.3656311,1
661,9.165497,0.35572815,-0.42907715,1
662,9.225342,0.37010193,-0.42189026,1
663,9.264847,0.35693359999999996,-0.46139526,1
664,9.287598,0.36170959999999996,-0.47816467,1
665,9.23732,0.31861877,-0.491333,1
666,9.190628,0.18693542,-0.48054504,1
667,9.200211,0.13426208,-0.3584442,1
668,9.117614999999999,0.20729065,-0.34048462,1
669,9.076903999999999,0.27432249999999997,-0.32373047,1
670,9.155914,0.36410522,-0.22436523,1
671,9.202606,0.37368774,-0.26387024,1
672,9.240905999999999,0.33537292,-0.17529297,1
673,9.222961,0.30545044,-0.102264404,1
674,9.212173,0.20370483,-0.06036377,1
675,9.242111,0.17018127,0.024627686,1
676,9.216965,0.17616272,0.06173706,1
677,9.172684,0.13426208,0.15270996,1
678,9.161896,0.18574524,0.20538330000000002,1
679,9.195419000000001,0.21566772,0.18144226,1
680,9.224152,0.2815094,0.3095398,1
681,9.240905999999999,0.32101440000000003,0.3203125,1
682,9.249298,0.30186462,0.23052979,1
683,9.183456,0.29588318,0.18025208,1
684,9.214569000000001,0.2635498,0.13237000000000002,1
685,9.248092999999999,0.25875854,0.216156,1
686,9.248092999999999,0.21566772,0.255661,1
687,9.184647,0.16419983,0.21017456,1
688,9.166687,0.19891357,0.255661,1
689,9.13916,0.1905365,0.3538208,1
690,9.258865,0.20489502,0.34425354,1
691,9.275619500000001,0.21087646,0.3885498,1
692,9.230133,0.15701294,0.47833252,1
693,9.254074000000001,0.1953125,0.45079040000000004,1
694,9.25647,0.17376709,0.43403625,1
695,9.165497,0.12828064,0.39453125,1
696,9.115219,0.083984375,0.47952269999999997,1
697,9.184647,0.07202148400000001,0.5381775,1
698,9.23732,0.0061798096,0.54776,1
699,9.187042,0.06124878,0.5740967,1
700,9.181061,0.064834595,0.6207885999999999,1
701,9.195419000000001,0.06602478,0.5956421,1
702,9.227737,0.13067627,0.61839294,1
703,9.268448,0.11152649,0.5585326999999999,1
704,9.225342,0.09954834,0.51304626,1
705,9.218169999999999,0.13665771,0.5453644,1
706,9.220566,0.21566772,0.57888794,1
707,9.173874,0.22764587,0.5956421,1
708,9.121201,0.1618042,0.57528687,1
709,9.220566,0.14384460000000002,0.58966064,1
710,9.218169999999999,0.14263916,0.59085083,1
711,9.260071,0.12588501,0.5489501999999999,1
712,9.209793,0.13426208,0.4807129,1
713,9.213379,0.17497253,0.49029540000000005,1
714,9.169083,0.15701294,0.5202179,1
715,9.157119999999999,0.15820313,0.5046692,1
716,9.179855,0.19770813,0.5561371,1
717,9.189438,0.19172668,0.56211853,1
718,9.207397,0.21208191,0.5549469,1
719,9.17746,0.23242188,0.58128357,1
720,9.155914,0.21566772,0.58247375,1
721,9.185837,0.1953125,0.5872649999999999,1
722,9.248092999999999,0.17137146,0.5776825,1
723,9.218169999999999,0.1618042,0.5740967,1
724,9.14035,0.105529785,0.50704956,1
725,9.263657,0.122299194,0.49987793,1
726,9.331894,0.11631775,0.47114563,1
727,9.225342,0.13786316,0.44001769999999996,1
728,9.263657,0.15222168,0.44122314,1
729,9.266052,0.117507935,0.5094452,1
730,9.215775,0.15580750000000002,0.5286102,1
731,9.189438,0.16419983,0.5094452,1
732,9.117614999999999,0.14263916,0.46754456,1
733,9.187042,0.06602478,0.5202179,1
734,9.216965,0.014556885,0.5573273,1
735,9.245697,0.064834595,0.62316895,1
736,9.242111,0.16659546,0.67944336,1
737,9.210983,0.14503479,0.6830291999999999,1
738,9.188232000000001,0.18693542,0.6997833000000001,1
739,9.135558999999999,0.19412231,0.7249298000000001,1
740,9.153519000000001,0.16299438,0.69021606,1
741,9.216965,0.060043335,0.6136017,1
742,9.23732,0.04208374,0.6531066999999999,1
743,9.252884,0.031311035,0.62916565,1
744,9.21936,0.03730774,0.6387329,1
745,9.236130000000001,0.055252075,0.5848694000000001,1
746,9.228943,0.117507935,0.5800781,1
747,9.183456,0.12109375,0.57888794,1
748,9.182250999999999,0.11152649,0.54296875,1
749,9.199005,0.06602478,0.55374146,1
750,9.2313385,0.05166626,0.57289124,1
751,9.197815,0.110321045,0.5872649999999999,1
752,9.147537,0.1845398,0.62916565,1
753,9.161896,0.20370483,0.6495055999999999,1
754,9.170288000000001,0.20370483,0.7464751999999999,1
755,9.173874,0.19651794,0.7404938,1
756,9.213379,0.16659546,0.7117614999999999,1
757,9.248092999999999,0.11631775,0.7644348000000001,1
758,9.170288000000001,0.107925415,0.75964355,1
759,9.185837,0.10913086,0.7345123,1
760,9.295975,0.11869812,0.70817566,1
761,9.245697,0.057647705,0.64352417,1
762,9.166687,-0.035720825,0.6710663,1
763,9.207397,-0.08480835,0.6602783,1
764,9.274429,-0.08720398,0.72732544,1
765,9.295975,-0.11114502,0.6531066999999999,1
766,9.213379,-0.078811646,0.6267699999999999,1
767,9.187042,-0.0045928955,0.5980376999999999,1
768,9.215775,0.04927063,0.57528687,1
769,9.236130000000001,0.15940857,0.5944519,1
770,9.189438,0.19293213,0.5513458000000001,1
771,9.184647,0.18334961,0.60762024,1
772,9.222961,0.19891357,0.5980376999999999,1
773,9.209793,0.20489502,0.57289124,1
774,9.21936,0.1845398,0.56211853,1
775,9.197815,0.20010376,0.53338623,1
776,9.208588,0.1618042,0.55015564,1
777,9.240905999999999,0.11869812,0.5453644,1
778,9.145142,0.11869812,0.5405731,1
779,9.161896,0.115112305,0.60043335,1
780,9.152328500000001,0.13905334,0.61239624,1
781,9.208588,0.17497253,0.5776825,1
782,9.205002,0.18095398,0.5860595999999999,1
783,9.244507,0.098358154,0.58366394,1
784,9.25647,0.08758545,0.54655457,1
785,9.225342,0.083984375,0.5740967,1
786,9.17627,0.13786316,0.5860595999999999,1
787,9.152328500000001,0.23123169,0.48310852,1
788,9.190628,0.2240448,0.48431396,1
789,9.195419000000001,0.16659546,0.51423645,1
790,9.163101,0.14982605,0.49029540000000005,1
791,9.25647,0.15580750000000002,0.5046692,1
792,9.260071,0.12109375,0.43522644,1
793,9.221756,0.1330719,0.40290833,1
794,9.202606,0.13067627,0.47114563,1
795,9.195419000000001,0.076812744,0.50227356,1
796,9.230133,0.083984375,0.5657196,1
797,9.185837,0.110321045,0.60043335,1
798,9.17627,0.12709045,0.6770477,1
799,9.175064,0.10194397,0.6542969,1
800,9.232529,0.08998108,0.6351471,1
801,9.25528,0.08518982,0.67944336,1
802,9.203796,0.08518982,0.63993835,1
803,9.203796,0.06602478,0.67225647,1
804,9.236130000000001,0.03491211,0.69021606,1
805,9.233734,0.036102295,0.6926116999999999,1
806,9.187042,0.10913086,0.70217896,1
807,9.148727000000001,0.15342712,0.6961975,1
808,9.187042,0.15940857,0.7428894,1
809,9.187042,0.16778564,0.80752563,1
810,9.210983,0.12588501,0.7464751999999999,1
811,9.220566,0.09715271,0.66267395,1
812,9.17746,0.105529785,0.6159973000000001,1
813,9.191833500000001,0.18334961,0.7357024999999999,1
814,9.155914,0.18693542,0.7440796,1
815,9.191833500000001,0.22045898,0.80992126,1
816,9.212173,0.29348755,0.7716217,1
817,9.213379,0.23602295,0.73091125,1
818,9.190628,0.24919128,0.6961975,1
819,9.230133,0.25875854,0.686615,1
820,9.216965,0.15701294,0.63394165,1
821,9.111618,0.15342712,0.71894836,1
822,9.136764999999999,0.16419983,0.7069701999999999,1
823,9.261261,0.18095398,0.69021606,1
824,9.242111,0.2132721,0.56451416,1
825,9.163101,0.22285461,0.61120605,1
826,9.225342,0.19293213,0.7045746,1
827,9.330688,0.13067627,0.75006104,1
828,9.234924000000001,0.081588745,0.74528503,1
829,9.116408999999999,0.10194397,0.7249298000000001,1
830,9.094864,0.07202148400000001,0.82788086,1
831,9.104446000000001,0.03251648,0.82429504,1
832,9.153519000000001,0.043289185,0.765625,1
833,9.224152,0.09715271,0.70578,1
834,9.225342,0.16659546,0.72013855,1
835,9.288788,0.26475525,0.67944336,1
836,9.228943,0.30903625,0.7177429,1
837,9.143951,0.4000244,0.76322937,1
838,9.130783000000001,0.41079712,0.74887085,1
839,9.185837,0.39523315,0.8147125,1
840,9.221756,0.2922821,0.75605774,1
841,9.194229,0.18693542,0.66986084,1
842,9.228943,0.09475708,0.6758423000000001,1
843,9.146347,0.014556885,0.7045746,1
844,9.154724,0.03491211,0.70217896,1
845,9.193024000000001,0.055252075,0.68782043,1
846,9.272034,0.12709045,0.6854248000000001,1
847,9.244507,0.15342712,0.69859314,1
848,9.218169999999999,0.21687317,0.72972107,1
849,9.173874,0.26475525,0.81829834,1
850,9.171478,0.28390503,0.8111267,1
851,9.173874,0.20370483,0.82788086,1
852,9.133179,0.20968628,0.8829498,1
853,9.206192,0.18095398,0.9104767,1
854,9.306747,0.13546753,0.87934875,1
855,9.23732,0.15701294,0.686615,1
856,9.159514999999999,0.122299194,0.7512665,1
857,9.12001,0.14503479,0.8554076999999999,1
858,9.207397,0.12588501,0.8949127,1
859,9.224152,0.18814087,0.8614044,1
860,9.175064,0.1725769,0.87576294,1
861,9.147537,0.1845398,0.8601989999999999,1
862,9.163101,0.13067627,0.88653564,1
863,9.17627,0.08518982,0.89012146,1
864,9.159514999999999,0.0756073,0.85661316,1
865,9.148727000000001,0.043289185,0.9009094000000001,1
866,9.222961,0.069625854,0.9416046,1
867,9.228943,0.09954834,0.86738586,1
868,9.160706,0.12588501,0.8506316999999999,1
869,9.182250999999999,0.14624023,0.8913269,1
870,9.152328500000001,0.14144897,0.89372253,1
871,9.152328500000001,0.17736816,0.9032898000000001,1
872,9.160706,0.12828064,0.8661804,1
873,9.218169999999999,0.12109375,0.84703064,1
874,9.254074000000001,0.105529785,0.77401733,1
875,9.234924000000001,0.046875,0.77041626,1
876,9.165497,0.055252075,0.7464751999999999,1
877,9.161896,0.08518982,0.7752074999999999,1
878,9.157119999999999,0.14025879,0.8123169,1
879,9.149933,0.21447754,0.8601989999999999,1
880,9.147537,0.27792358,0.9320221,1
881,9.200211,0.28749084,1.0062408,1
882,9.299576,0.18574524,0.8877411000000001,1
883,9.202606,0.122299194,0.9272461,1
884,9.181061,0.09715271,0.92604065,1
885,9.218169999999999,0.10433959999999999,0.92245483,1
886,9.169083,0.11631775,0.76802063,1
887,9.087677000000001,0.20610046,0.72612,1
888,9.169083,0.17855835,0.7752074999999999,1
889,9.197815,0.1618042,0.8314666999999999,1
890,9.23851,0.20370483,0.89012146,1
891,9.187042,0.17137146,0.82429504,1
892,9.157119999999999,0.17616272,0.78837585,1
893,9.166687,0.14743042,0.75845337,1
894,9.195419000000001,0.107925415,0.765625,1
895,9.182250999999999,0.16299438,0.75605774,1
896,9.154724,0.21687317,0.75006104,1
897,9.200211,0.20249939,0.80633545,1
898,9.227737,0.1797638,0.78837585,1
899,9.199005,0.18814087,0.7548523,1
900,9.203796,0.14263916,0.80513,1
901,9.185837,0.088775635,0.83625793,1
902,9.185837,0.06364441,0.8302765,1
903,9.188232000000001,0.09596252400000001,0.8314666999999999,1
904,9.214569000000001,0.100753784,0.83865356,1
905,9.232529,0.098358154,0.8326720999999999,1
906,9.218169999999999,0.08758545,0.8302765,1
907,9.197815,0.11392212,0.7835846,1
908,9.199005,0.12348938,0.74887085,1
909,9.207397,0.10913086,0.7620392,1
910,9.143951,0.1618042,0.78718567,1
911,9.15831,0.15940857,0.78837585,1
912,9.244507,0.16059875,0.7859802,1
913,9.221756,0.14384460000000002,0.7249298000000001,1
914,9.111618,0.16299438,0.75964355,1
915,9.155914,0.1725769,0.8374634,1
916,9.261261,0.19412231,0.8482360999999999,1
917,9.159514999999999,0.19293213,0.72372437,1
918,9.199005,0.17376709,0.7752074999999999,1
919,9.236130000000001,0.1510315,0.8266754000000001,1
920,9.213379,0.15820313,0.7752074999999999,1
921,9.145142,0.20370483,0.7967529000000001,1
922,9.093674,0.23602295,0.8027344,1
923,9.17627,0.21208191,0.82429504,1
924,9.199005,0.21566772,0.8266754000000001,1
925,9.225342,0.2300415,0.81829834,1
926,9.194229,0.24200439999999998,0.84584045,1
927,9.151123,0.18693542,0.8697815000000001,1
928,9.17746,0.14144897,0.9404144,1
929,9.182250999999999,0.13905334,0.9320221,1
930,9.166687,0.14503479,0.88653564,1
931,9.143951,0.17018127,0.9116820999999999,1
932,9.173874,0.18214417,0.90808105,1
933,9.185837,0.16299438,0.92604065,1
934,9.166687,0.14743042,0.91885376,1
935,9.212173,0.17137146,0.87576294,1
936,9.202606,0.19293213,0.8925171000000001,1
937,9.181061,0.18574524,0.8913269,1
938,9.190628,0.15342712,0.9344177,1
939,9.187042,0.17018127,0.9020995999999999,1
940,9.184647,0.16659546,0.9272461,1
941,9.147537,0.1845398,0.95118713,1
942,9.171478,0.22045898,0.96435547,1
943,9.210983,0.17616272,0.91885376,1
944,9.207397,0.12348938,0.92485046,1
945,9.128387,0.13665771,0.9822998,1
946,9.199005,0.13786316,0.9703369000000001,1
947,9.250488,0.14144897,0.9092865,1
948,9.147537,0.14863586,0.8530120999999999,1
949,9.103241,0.15342712,0.93681335,1
950,9.153519000000001,0.14144897,0.9799041999999999,1
951,9.218169999999999,0.12588501,0.99069214,1
952,9.194229,0.14263916,0.9451904000000001,1
953,9.17746,0.1618042,0.96195984,1
954,9.169083,0.16299438,0.9811095999999999,1
955,9.160706,0.16539001,0.96913147,1
956,9.201400999999999,0.16299438,0.94758606,1
957,9.203796,0.17736816,0.9272461,1
958,9.141556,0.17616272,0.96673584,1
959,9.222961,0.14982605,0.95118713,1
960,9.205002,0.17616272,0.9308318999999999,1
961,9.164291,0.18814087,0.93681335,1
962,9.185837,0.16059875,0.9499816999999999,1
963,9.196625,0.14743042,0.9595642,1
964,9.188232000000001,0.11631775,0.939209,1
965,9.167892,0.10433959999999999,0.978714,1
966,9.193024000000001,0.14624023,0.95118713,1
967,9.17746,0.13905334,0.9918823,1
968,9.152328500000001,0.14025879,0.96673584,1
969,9.195419000000001,0.12348938,0.94400024,1
970,9.171478,0.1510315,0.939209,1
971,9.179855,0.13186646,0.978714,1
972,9.167892,0.15342712,0.95477295,1
973,9.154724,0.13067627,1.018219,1
974,9.207397,0.13786316,0.9703369000000001,1
975,9.254074000000001,0.12348938,0.95596313,1
976,9.106842,0.14263916,0.96435547,1
977,9.213379,0.18214417,0.9882965,1
978,9.272034,0.15342712,0.96315,1
979,9.157119999999999,0.14863586,0.8614044,1
980,9.134369,0.15461731,0.9200591999999999,1
981,9.179855,0.091171265,1.0074463,1
982,9.243300999999999,0.13067627,1.0110321,1
983,9.175064,0.14863586,0.9894867,1
984,9.122391,0.17376709,0.9990691999999999,1
985,9.155914,0.14863586,1.0002594,1
986,9.188232000000001,0.12828064,0.99427795,1
987,9.200211,0.14384460000000002,0.9775238000000002,1
988,9.172684,0.14263916,0.9404144,1
989,9.135558999999999,0.13546753,0.9822998,1
990,9.184647,0.16419983,1.0254059000000002,1
991,9.209793,0.1797638,0.9751281999999999,1
992,9.165497,0.18933105,0.9308318999999999,1
993,9.165497,0.18095398,0.9966735999999999,1
994,9.153519000000001,0.14624023,1.0289917,1
995,9.171478,0.12348938,1.0038605,1
996,9.170288000000001,0.14025879,0.9715271000000001,1
997,9.17627,0.1725769,1.0110321,1
998,9.203796,0.18574524,0.99069214,1
999,9.181061,0.18334961,0.9966735999999999,1
1000,9.163101,0.14743042,0.98350525,1
1001,9.183456,0.14624023,1.0026549999999999,1
1002,9.166687,0.13067627,0.95118713,1
1003,9.172684,0.17137146,1.0122375,1
1004,9.182250999999999,0.18814087,0.99427795,1
1005,9.17627,0.16059875,0.98709106,1
1006,9.193024000000001,0.1510315,0.99069214,1
1007,9.252884,0.17018127,0.9799041999999999,1
1008,9.208588,0.1510315,0.9751281999999999,1
1009,9.06134,0.12709045,1.0493469,1
1010,9.167892,0.119903564,1.0206146,1
1011,9.248092999999999,0.12709045,0.9811095999999999,1
1012,9.17746,0.09475708,0.89012146,1
1013,9.12001,0.13786316,0.95477295,1
1014,9.195419000000001,0.12348938,1.0110321,1
1015,9.233734,0.10673523,1.0589142,1
1016,9.173874,0.1618042,1.0134277,1
1017,9.127182000000001,0.14743042,0.99546814,1
1018,9.134369,0.14624023,1.0361786,1
1019,9.185837,0.12109375,0.9739226999999999,1
1020,9.214569000000001,0.17137146,0.9679413,1
1021,9.195419000000001,0.17018127,0.94758606,1
1022,9.175064,0.11152649,0.9799041999999999,1
1023,9.196625,0.15580750000000002,0.9775238000000002,1
1024,9.191833500000001,0.122299194,0.9751281999999999,1
1025,9.161896,0.13067627,0.9930725,1
1026,9.149933,0.13426208,0.97631836,1
1027,9.17627,0.12948608,0.9739226999999999,1
1028,9.178664999999999,0.12709045,0.9535674999999999,1
1029,9.191833500000001,0.14144897,0.9679413,1
1030,9.187042,0.13665771,0.96673584,1
1031,9.172684,0.13426208,0.98350525,1
1032,9.17746,0.14384460000000002,0.9416046,1
1033,9.164291,0.14503479,0.9463959000000001,1
1034,9.189438,0.122299194,0.96435547,1
1035,9.152328500000001,0.112716675,0.98350525,1
1036,9.175064,0.110321045,0.939209,1
1037,9.182250999999999,0.14025879,0.92485046,1
1038,9.17746,0.11631775,0.9128723,1
1039,9.199005,0.12348938,0.93322754,1
1040,9.15831,0.13186646,0.9308318999999999,1
1041,9.187042,0.17616272,0.90449524,1
1042,9.260071,0.1618042,0.8601989999999999,1
1043,9.136764999999999,0.12588501,0.8614044,1
1044,9.0577545,0.11152649,0.8721771,1
1045,9.216965,0.122299194,0.93562317,1
1046,9.193024000000001,0.105529785,0.9009094000000001,1
1047,9.143951,0.12469482400000001,0.8530120999999999,1
1048,9.173874,0.14263916,0.93681335,1
1049,9.17627,0.119903564,0.95835876,1
1050,9.155914,0.15701294,0.9739226999999999,1
1051,9.135558999999999,0.14144897,0.9380188,1
1052,9.136764999999999,0.18814087,1.0218048,1
1053,9.181061,0.17018127,0.9595642,1
1054,9.199005,0.14982605,0.9416046,1
1055,9.173874,0.15461731,0.9523773000000001,1
1056,9.154724,0.1510315,0.98469543,1
1057,9.146347,0.1330719,1.0050507,1
1058,9.169083,0.15222168,1.0122375,1
1059,9.182250999999999,0.14863586,0.98469543,1
1060,9.148727000000001,0.14384460000000002,0.9822998,1
1061,9.173874,0.1510315,0.99069214,1
1062,9.187042,0.14624023,1.0469513000000001,1
1063,9.141556,0.13186646,1.0529327,1
1064,9.149933,0.12588501,1.0050507,1
1065,9.182250999999999,0.15580750000000002,1.0613098,1
1066,9.202606,0.12348938,1.0553284,1
1067,9.187042,0.16059875,1.0541382,1
1068,9.17627,0.14263916,1.04216,1
1069,9.17746,0.11631775,1.0493469,1
1070,9.149933,0.14263916,1.0230103000000002,1
1071,9.159514999999999,0.13426208,1.0457458,1
1072,9.173874,0.14503479,1.0613098,1
1073,9.188232000000001,0.14743042,1.0517426,1
1074,9.165497,0.098358154,1.0433502000000001,1
1075,9.123596000000001,0.17137146,1.0385742,1
1076,9.21936,0.13067627,1.0409698,1
1077,9.221756,0.12588501,1.0301970999999999,1
1078,9.084091,0.105529785,1.0601196000000002,1
1079,9.153519000000001,0.13665771,1.0684966999999999,1
1080,9.248092999999999,0.16059875,1.0433502000000001,1
1081,9.105637,0.1797638,0.95596313,1
1082,9.123596000000001,0.14982605,0.9751281999999999,1
1083,9.161896,0.112716675,1.0684966999999999,1
1084,9.228943,0.098358154,1.0720825,1
1085,9.185837,0.1510315,1.0445556999999999,1
1086,9.141556,0.17376709,1.0708923000000001,1
1087,9.143951,0.16299438,1.0900421,1
1088,9.146347,0.12588501,1.0888518999999999,1
1089,9.196625,0.14863586,1.0481415,1
1090,9.163101,0.14982605,1.0505371000000001,1
1091,9.155914,0.14384460000000002,1.0684966999999999,1
1092,9.188232000000001,0.17855835,1.0780792,1
1093,9.195419000000001,0.13067627,1.0661011,1
1094,9.160706,0.13546753,1.0828552,1
1095,9.137955,0.16659546,1.0996246,1
1096,9.166687,0.12348938,1.0888518999999999,1
1097,9.161896,0.11869812,1.0816649999999999,1
1098,9.141556,0.1510315,1.0792694,1
1099,9.189438,0.14025879,1.0996246,1
1100,9.166687,0.11631775,1.0900421,1
1101,9.153519000000001,0.09715271,1.0948334,1
1102,9.179855,0.12828064,1.073288,1
1103,9.191833500000001,0.12348938,1.1020203000000002,1
1104,9.164291,0.13905334,1.0529327,1
1105,9.129578,0.12709045,1.073288,1
1106,9.14035,0.13786316,1.1044159,1
1107,9.142746,0.119903564,1.0840607,1
1108,9.129578,0.15940857,1.1068115,1
1109,9.184647,0.16059875,1.1044159,1
1110,9.183456,0.14982605,1.1355286,1
1111,9.142746,0.16299438,1.0960236,1
1112,9.164291,0.18933105,1.0900421,1
1113,9.242111,0.1725769,1.0852509,1
1114,9.075714,0.13426208,1.1044159,1
1115,9.143951,0.14863586,1.0852509,1
1116,9.224152,0.16659546,1.0960236,1
1117,9.149933,0.19412231,0.99069214,1
1118,9.099655,0.16897583,0.97273254,1
1119,9.143951,0.15940857,1.0505371000000001,1
1120,9.209793,0.14624023,1.0613098,1
1121,9.172684,0.16539001,1.0792694,1
1122,9.106842,0.20249939,1.0852509,1
1123,9.128387,0.14624023,1.0840607,1
1124,9.181061,0.11152649,1.0744781,1
1125,9.215775,0.09236145,1.0577239999999999,1
1126,9.201400999999999,0.09596252400000001,1.0613098,1
1127,9.155914,0.117507935,1.1499023000000002,1
1128,9.149933,0.08279419,1.1618652,1
1129,9.17746,0.08279419,1.1582794,1
1130,9.15831,0.12348938,1.1103973,1
1131,9.161896,0.08279419,1.0912476,1
1132,9.165497,0.10913086,1.1834258999999998,1
1133,9.169083,0.13786316,1.1499023000000002,1
1134,9.17746,0.13546753,1.1882019,1
1135,9.151123,0.14025879,1.1235657,1
1136,9.187042,0.16897583,1.1115875,1
1137,9.164291,0.1330719,1.0828552,1
1138,9.163101,0.110321045,1.0804749,1
1139,9.151123,0.083984375,1.0170288,1
1140,9.152328500000001,0.105529785,1.0493469,1
1141,9.142746,0.11392212,1.0397644,1
1142,9.134369,0.16539001,1.0445556999999999,1
1143,9.175064,0.13786316,1.0433502000000001,1
1144,9.170288000000001,0.13546753,1.0146332,1
1145,9.183456,0.110321045,1.0649108999999999,1
1146,9.152328500000001,0.10673523,1.073288,1
1147,9.17627,0.08758545,1.0038605,1
1148,9.188232000000001,0.14863586,0.9487915000000001,1
1149,9.15831,0.17376709,0.9930725,1
1150,9.0793,0.1797638,1.018219,1
1151,9.179855,0.12588501,1.0493469,1
1152,9.239716,0.13067627,1.0242004,1
1153,9.169083,0.14263916,0.9523773000000001,1
1154,9.167892,0.093566895,0.95835876,1
1155,9.195419000000001,0.07321167,0.9822998,1
1156,9.146347,0.07800293,1.0206146,1
1157,9.105637,0.13905334,1.0230103000000002,1
1158,9.124786,0.098358154,1.0301970999999999,1
1159,9.154724,0.10913086,0.9859009,1
1160,9.25647,0.098358154,0.9404144,1
1161,9.183456,0.13426208,0.95596313,1
1162,9.128387,0.12948608,0.98469543,1
1163,9.151123,0.112716675,0.96435547,1
1164,9.190628,0.13067627,0.9811095999999999,1
1165,9.17627,0.11869812,0.9751281999999999,1
1166,9.161896,0.115112305,0.94758606,1
1167,9.181061,0.105529785,1.0086365,1
1168,9.220566,0.112716675,1.0050507,1
1169,9.170288000000001,0.1330719,0.96554565,1
1170,9.179855,0.1330719,1.0278015,1
1171,9.171478,0.15342712,1.073288,1
1172,9.190628,0.17137146,1.04216,1
1173,9.166687,0.14503479,1.0062408,1
1174,9.160706,0.15701294,1.0349731,1
1175,9.164291,0.16539001,1.0469513000000001,1
1176,9.160706,0.17137146,1.0062408,1
1177,9.151123,0.15222168,1.0098419,1
1178,9.099655,0.18214417,1.0170288,1
1179,9.166687,0.17855835,1.0433502000000001,1
1180,9.23732,0.15222168,1.0481415,1
1181,9.228943,0.098358154,1.0062408,1
1182,9.105637,0.12109375,1.0481415,1
1183,9.173874,0.15222168,1.0744781,1
1184,9.251678,0.11392212,1.0756836,1
1185,9.130783000000001,0.14982605,0.95835876,1
1186,9.129578,0.17137146,1.0170288,1
1187,9.167892,0.112716675,1.1008148000000002,1
1188,9.194229,0.09475708,1.1941986,1
1189,9.181061,0.12109375,1.1115875,1
1190,9.143951,0.14503479,1.1247559,1
1191,9.157119999999999,0.13786316,1.1451111,1
1192,9.164291,0.13546753,1.112793,1
1193,9.169083,0.13067627,1.1080017,1
1194,9.157119999999999,0.14982605,1.0804749,1
1195,9.154724,0.12469482400000001,1.1163788000000001,1
1196,9.166687,0.13665771,1.1702576,1
1197,9.172684,0.11392212,1.1199646,1
1198,9.183456,0.12469482400000001,1.1020203000000002,1
1199,9.134369,0.12109375,1.1032104,1
1200,9.163101,0.10673523,1.1463013000000002,1
1201,9.141556,0.09475708,1.1175841999999998,1
1202,9.169083,0.119903564,1.1379242,1
1203,9.151123,0.115112305,1.1570892,1
1204,9.188232000000001,0.13786316,1.1295471000000001,1
1205,9.17746,0.14743042,1.1151886,1
1206,9.145142,0.14384460000000002,1.1163788000000001,1
1207,9.147537,0.11392212,1.1115875,1
1208,9.149933,0.10673523,1.0661011,1
1209,9.170288000000001,0.122299194,1.112793,1
1210,9.152328500000001,0.105529785,1.0816649999999999,1
1211,9.169083,0.10673523,1.1343383999999999,1
1212,9.13916,0.15820313,1.1223602,1
1213,9.114014,0.1330719,1.1379242,1
1214,9.175064,0.122299194,1.1151886,1
1215,9.197815,0.107925415,1.1223602,1
1216,9.0972595,0.15701294,1.1475066999999999,1
1217,9.121201,0.17855835,1.1750336000000001,1
1218,9.234924000000001,0.18814087,1.1463013000000002,1
1219,9.125992,0.19172668,1.0553284,1
1220,9.072113,0.17855835,1.0876465,1
1221,9.110428,0.115112305,1.1032104,1
1222,9.195419000000001,0.11152649,1.0996246,1
1223,9.17746,0.12469482400000001,1.1068115,1
1224,9.14035,0.17376709,1.1726378999999998,1
1225,9.123596000000001,0.15940857,1.1786346,1
1226,9.159514999999999,0.12828064,1.1499023000000002,1
1227,9.153519000000001,0.15820313,1.1355286,1
1228,9.190628,0.12948608,1.1175841999999998,1
1229,9.152328500000001,0.13786316,1.0768738000000002,1
1230,9.13916,0.11152649,1.1379242,1
1231,9.197815,0.12109375,1.1822205,1
1232,9.136764999999999,0.110321045,1.1391296,1
1233,9.136764999999999,0.09715271,1.1918030000000002,1
1234,9.17627,0.10913086,1.2049713,1
1235,9.161896,0.1330719,1.2097473,1
1236,9.167892,0.12348938,1.1905975,1
1237,9.136764999999999,0.12109375,1.1941986,1
1238,9.147537,0.115112305,1.1714478000000002,1
1239,9.151123,0.11152649,1.1702576,1
1240,9.160706,0.11392212,1.2229156,1
1241,9.130783000000001,0.098358154,1.1618652,1
1242,9.148727000000001,0.10673523,1.1882019,1
1243,9.145142,0.13786316,1.1690521,1
1244,9.175064,0.15222168,1.1642609,1
1245,9.179855,0.117507935,1.1726378999999998,1
1246,9.164291,0.13665771,1.1235657,1
1247,9.167892,0.15820313,1.1858063,1
1248,9.183456,0.10673523,1.1546936,1
1249,9.199005,0.14624023,1.1379242,1
1250,9.082901,0.14384460000000002,1.1690521,1
1251,9.194229,0.16659546,1.2444763,1
1252,9.23851,0.13546753,1.1929931999999999,1
1253,9.076903999999999,0.15940857,1.0864563,1
1254,9.048172000000001,0.14144897,1.1032104,1
1255,9.145142,0.098358154,1.1546936,1
1256,9.280411,0.081588745,1.1714478000000002,1
1257,9.205002,0.091171265,1.0948334,1
1258,9.145142,0.062438965,1.0589142,1
1259,9.133179,0.10673523,1.0349731,1
1260,9.155914,0.12709045,1.0768738000000002,1
1261,9.127182000000001,0.12588501,1.1558838,1
1262,9.143951,0.16419983,1.1905975,1
1263,9.173874,0.17497253,1.2420806999999998,1
1264,9.181061,0.105529785,1.2516479999999999,1
1265,9.252884,0.07321167,1.2229156,1
1266,9.202606,0.031311035,1.1918030000000002,1
1267,9.12001,0.0756073,1.1582794,1
1268,9.133179,0.074417114,1.1068115,1
1269,9.170288000000001,0.067230225,1.0900421,1
1270,9.15831,0.09715271,1.0792694,1
1271,9.149933,0.15342712,1.0684966999999999,1
1272,9.157119999999999,0.2240448,1.1080017,1
1273,9.122391,0.21806335,1.1499023000000002,1
1274,9.14035,0.20489502,1.1750336000000001,1
1275,9.181061,0.16897583,1.1941986,1
1276,9.225342,0.08998108,1.1714478000000002,1
1277,9.155914,0.117507935,1.1810303,1
1278,9.110428,0.09236145,1.1977844,1
1279,9.086487,0.13426208,1.1929931999999999,1
1280,9.179855,0.15222168,1.1020203000000002,1
1281,9.226547,0.14263916,1.0780792,1
1282,9.115219,0.16299438,1.1451111,1
1283,9.154724,0.16419983,1.1726378999999998,1
1284,9.228943,0.15222168,1.1546936,1
1285,9.143951,0.14144897,1.0433502000000001,1
1286,9.080505,0.12828064,1.1558838,1
1287,9.134369,0.115112305,1.270813,1
1288,9.200211,0.115112305,1.2899628,1
1289,9.206192,0.08039856,1.2085571000000002,1
1290,9.154724,0.08998108,1.236084,1
1291,9.155914,0.09596252400000001,1.176239,1
1292,9.147537,0.0756073,1.1750336000000001,1
1293,9.172684,0.09236145,1.1247559,1
1294,9.157119999999999,0.088775635,1.1475066999999999,1
1295,9.148727000000001,0.16539001,1.1307526,1
1296,9.141556,0.14982605,1.2037659,1
1297,9.151123,0.13426208,1.1929931999999999,1
1298,9.147537,0.12828064,1.1499023000000002,1
1299,9.15831,0.10314941400000001,1.1666565,1
1300,9.154724,0.046875,1.1929931999999999,1
1301,9.165497,0.06124878,1.2217255,1
1302,9.157119999999999,0.083984375,1.2157440000000002,1
1303,9.141556,0.09715271,1.1750336000000001,1
1304,9.151123,0.117507935,1.2133483999999999,1
1305,9.175064,0.13786316,1.196579,1
1306,9.14035,0.14982605,1.2229156,1
1307,9.152328500000001,0.06364441,1.196579,1
1308,9.183456,0.09715271,1.1905975,1
1309,9.161896,0.13186646,1.2205353,1
1310,9.145142,0.11869812,1.2229156,1
1311,9.185837,0.100753784,1.1918030000000002,1
1312,9.152328500000001,0.10194397,1.1953888000000001,1
1313,9.0733185,0.14263916,1.2384796,1
1314,9.179855,0.13786316,1.2324982,1
1315,9.228943,0.1618042,1.2169341999999999,1
1316,9.13916,0.14982605,1.1319427,1
1317,9.074508999999999,0.15940857,1.1941986,1
1318,9.124786,0.074417114,1.2372893999999999,1
1319,9.190628,0.1330719,1.2636261,1
1320,9.143951,0.12348938,1.2648163000000001,1
1321,9.116408999999999,0.13665771,1.2420806999999998,1
1322,9.173874,0.12348938,1.2324982,1
1323,9.17627,0.07081604,1.207367,1
1324,9.169083,0.107925415,1.1977844,1
1325,9.133179,0.119903564,1.1846161,1
1326,9.13916,0.11869812,1.239685,1
1327,9.175064,0.1618042,1.1858063,1
1328,9.170288000000001,0.12109375,1.2193298000000001,1
1329,9.129578,0.10194397,1.2576447,1
1330,9.121201,0.14025879,1.2803802,1
1331,9.141556,0.13067627,1.291153,1
1332,9.14035,0.09236145,1.2480621,1
1333,9.136764999999999,0.083984375,1.2600403,1
1334,9.169083,0.107925415,1.255249,1
1335,9.14035,0.086380005,1.2324982,1
1336,9.116408999999999,0.098358154,1.2684174,1
1337,9.129578,0.10194397,1.2265167,1
1338,9.125992,0.091171265,1.2241211,1
1339,9.216965,0.115112305,1.2037659,1
1340,9.166687,0.15461731,1.2217255,1
1341,9.105637,0.15701294,1.1295471000000001,1
1342,9.134369,0.1510315,1.1295471000000001,1
1343,9.202606,0.12828064,1.12117,1
1344,9.15831,0.115112305,1.1403198,1
1345,9.114014,0.1330719,1.1750336000000001,1
1346,9.196625,0.12828064,1.1858063,1
1347,9.17627,0.100753784,1.0780792,1
1348,9.106842,0.14503479,1.0804749,1
1349,9.148727000000001,0.09236145,1.1080017,1
1350,9.221756,0.05885315,1.1343383999999999,1
1351,9.193024000000001,0.08998108,1.2025757,1
1352,9.135558999999999,0.10314941400000001,1.1786346,1
1353,9.149933,0.081588745,1.1810303,1
1354,9.166687,0.107925415,1.176239,1
1355,9.181061,0.14025879,1.152298,1
1356,9.179855,0.083984375,1.1570892,1
1357,9.149933,0.12588501,1.1594696000000002,1
1358,9.165497,0.09715271,1.1415253,1
1359,9.153519000000001,0.119903564,1.1415253,1
1360,9.143951,0.12828064,1.1271514999999999,1
1361,9.125992,0.12828064,1.1499023000000002,1
1362,9.175064,0.12588501,1.1558838,1
1363,9.135558999999999,0.12109375,1.196579,1
1364,9.15831,0.12469482400000001,1.1618652,1
1365,9.173874,0.110321045,1.1642609,1
1366,9.183456,0.12828064,1.1726378999999998,1
1367,9.161896,0.09596252400000001,1.1905975,1
1368,9.171478,0.12948608,1.2229156,1
1369,9.137955,0.10433959999999999,1.1953888000000001,1
1370,9.13916,0.11152649,1.2277069,1
1371,9.116408999999999,0.17376709,1.270813,1
1372,9.075714,0.2348175,1.3414306999999999,1
1373,9.108032000000001,0.25277710000000003,1.2624207,1
1374,9.205002,0.17018127,1.239685,1
1375,9.33548,0.13786316,1.1379242,1
1376,9.212173,0.05645752,1.0924377,1
1377,9.108032000000001,0.038497925,1.0661011,1
1378,9.165497,0.081588745,1.0768738000000002,1
1379,9.108032000000001,0.18693542,1.0780792,1
1380,9.011063,0.2348175,1.1666565,1
1381,9.066132000000001,0.25398254,1.2863617,1
1382,9.205002,0.22525024,1.3785399999999999,1
1383,9.288788,0.18933105,1.4036865,1
1384,9.216965,0.11631775,1.3055267,1
1385,9.214569000000001,0.06124878,1.2217255,1
1386,9.164291,0.11392212,1.2600403,1
1387,9.0793,0.076812744,1.2205353,1
1388,9.062546000000001,0.09475708,1.1798248,1
1389,9.134369,0.16778564,1.1379242,1
1390,9.189438,0.17497253,1.1427155,1
1391,9.17627,0.18214417,1.2432709,1
1392,9.13916,0.29109192,1.2899628,1
1393,9.110428,0.29588318,1.3653716999999999,1
1394,9.128387,0.21806335,1.4144591999999998,1
1395,9.208588,0.10433959999999999,1.418045,1
1396,9.189438,0.038497925,1.3186951,1
1397,9.136764999999999,0.024139404,1.3234863000000001,1
1398,9.072113,0.06364441,1.2612305,1
1399,9.076903999999999,0.07800293,1.2672119,1
1400,9.062546000000001,0.17018127,1.2205353,1
1401,9.115219,0.22644043,1.2420806999999998,1
1402,9.14035,0.2300415,1.3617858999999999,1
1403,9.195419000000001,0.23960876,1.4300232,1
1404,9.250488,0.23841858,1.4276276,1
1405,9.175064,0.14863586,1.3582001,1
1406,9.123596000000001,0.04447937,1.3414306999999999,1
1407,9.134369,-0.0440979,1.2935486,1
1408,9.045776,-0.042907715,1.2803802,1
1409,9.117614999999999,0.0037841796999999997,1.1989746000000001,1
1410,9.09845,0.08758545,1.2025757,1
1411,9.103241,0.2240448,1.231308,1
1412,9.135558999999999,0.21806335,1.3318633999999998,1
1413,9.25647,0.259964,1.3605957,1
1414,9.203796,0.17137146,1.3593903,1
1415,9.114014,0.06364441,1.3258667,1
1416,9.234924000000001,0.05406189,1.3474274,1
1417,9.201400999999999,0.0049743652,1.3055267,1
1418,9.051772999999999,0.031311035,1.2516479999999999,1
1419,9.035003999999999,0.04808044400000001,1.3450316999999998,1
1420,9.111618,0.10913086,1.349823,1
1421,9.128387,0.15940857,1.373764,1
1422,9.207397,0.1905365,1.409668,1
1423,9.234924000000001,0.18214417,1.3964996,1
1424,9.100845,0.14624023,1.4850922,1
1425,9.029022,0.067230225,1.5198059,1
1426,9.013458,0.069625854,1.4647369,1
1427,9.067337,0.06842041,1.4216461,1
1428,9.090073,0.10314941400000001,1.3964996,1
1429,9.148727000000001,0.12109375,1.3629761,1
1430,9.157119999999999,0.09475708,1.3186951,1
1431,9.117614999999999,0.10194397,1.3534088,1
1432,9.082901,0.105529785,1.3545989999999999,1
1433,9.106842,0.09236145,1.3545989999999999,1
1434,9.118805,0.110321045,1.370163,1
1435,9.159514999999999,0.088775635,1.4407959,1
1436,9.185837,0.06364441,1.4719238000000001,1
1437,9.173874,0.03970337,1.4719238000000001,1
1438,9.105637,0.03491211,1.4695281999999998,1
1439,9.085281,0.02053833,1.5102233999999999,1
1440,9.123596000000001,0.01574707,1.4922638000000001,1
1441,9.130783000000001,0.04447937,1.4671326,1
1442,9.151123,0.055252075,1.4503784,1
1443,9.099655,0.10913086,1.4108733999999998,1
1444,9.085281,0.16539001,1.3953094,1
1445,9.118805,0.18334961,1.3881226,1
1446,9.115219,0.1510315,1.370163,1
1447,9.135558999999999,0.15461731,1.3689728,1
1448,9.129578,0.15580750000000002,1.4072723,1
1449,9.170288000000001,0.13665771,1.4024811000000001,1
1450,9.117614999999999,0.10673523,1.3402405000000002,1
1451,9.045776,0.09596252400000001,1.4479828000000001,1
1452,9.183456,0.12348938,1.4539642,1
1453,9.202606,0.09596252400000001,1.3174896,1
1454,9.09845,0.12109375,1.2935486,1
1455,9.1128235,0.13546753,1.3318633999999998,1
1456,9.154724,0.15222168,1.3270721,1
1457,9.185837,0.14025879,1.3569946000000002,1
1458,9.136764999999999,0.14743042,1.3198853000000002,1
1459,9.104446000000001,0.067230225,1.2648163000000001,1
1460,9.128387,0.10913086,1.2839813,1
1461,9.137955,0.10314941400000001,1.3186951,1
1462,9.14035,0.117507935,1.2851715,1
1463,9.125992,0.07081604,1.2875671,1
1464,9.159514999999999,0.07800293,1.2624207,1
1465,9.149933,0.076812744,1.2743988000000002,1
1466,9.149933,0.09236145,1.2648163000000001,1
1467,9.125992,0.08998108,1.3019257,1
1468,9.141556,0.08039856,1.2839813,1
1469,9.123596000000001,0.05645752,1.3067169,1
1470,9.163101,0.07202148400000001,1.2875671,1
1471,9.143951,0.03970337,1.2815857,1
1472,9.149933,0.03730774,1.2923584,1
1473,9.171478,0.09475708,1.3258667,1
1474,9.103241,0.091171265,1.3198853000000002,1
1475,9.135558999999999,0.08998108,1.3139038,1
1476,9.131973,0.09954834,1.3019257,1
1477,9.183456,0.10314941400000001,1.3091125,1
1478,9.143951,0.100753784,1.3043213,1
1479,9.122391,0.119903564,1.3091125,1
1480,9.085281,0.076812744,1.3139038,1
1481,9.157119999999999,0.11631775,1.3378448,1
1482,9.212173,0.09596252400000001,1.3234863000000001,1
1483,9.123596000000001,0.12469482400000001,1.3139038,1
1484,9.117614999999999,0.11869812,1.3785399999999999,1
1485,9.188232000000001,0.086380005,1.3869323999999998,1
1486,9.159514999999999,0.09475708,1.2827758999999999,1
1487,9.081696,0.13067627,1.3007355,1
1488,9.109222,0.12348938,1.3953094,1
1489,9.143951,0.08279419,1.4360046,1
1490,9.155914,0.1510315,1.4384003,1
1491,9.153519000000001,0.15940857,1.3905181999999998,1
1492,9.124786,0.13786316,1.3893127,1
1493,9.143951,0.14025879,1.3713684,1
1494,9.146347,0.091171265,1.3629761,1
1495,9.122391,0.105529785,1.3438263000000001,1
1496,9.153519000000001,0.13186646,1.3761444,1
1497,9.123596000000001,0.14384460000000002,1.3689728,1
1498,9.175064,0.09596252400000001,1.413269,1
1499,9.152328500000001,0.115112305,1.3510132,1
1500,9.14035,0.13546753,1.3617858999999999,1
1501,9.102051,0.12469482400000001,1.3785399999999999,1
1502,9.145142,0.12348938,1.497055,1
1503,9.131973,0.13786316,1.4623413,1
1504,9.122391,0.1330719,1.4467773000000002,1
1505,9.108032000000001,0.14503479,1.4276276,1
1506,9.096069,0.15940857,1.409668,1
1507,9.130783000000001,0.12109375,1.3821411,1
1508,9.1128235,0.14503479,1.4527588,1
1509,9.133179,0.1510315,1.4276276,1
1510,9.1128235,0.16059875,1.4108733999999998,1
1511,9.122391,0.18214417,1.4216461,1
1512,9.111618,0.14263916,1.3689728,1
1513,9.131973,0.1330719,1.4276276,1
1514,9.116408999999999,0.15342712,1.3905181999999998,1
1515,9.145142,0.12709045,1.3605957,1
1516,9.203796,0.12348938,1.3366547,1
1517,9.09845,0.11869812,1.3833313,1
1518,9.072113,0.14263916,1.4312133999999999,1
1519,9.175064,0.17018127,1.418045,1
1520,9.182250999999999,0.14624023,1.3462219,1
1521,9.068527,0.16419983,1.3510132,1
1522,9.094864,0.14144897,1.4264374,1
1523,9.159514999999999,0.10673523,1.4527588,1
1524,9.165497,0.12709045,1.4910736,1
1525,9.123596000000001,0.18095398,1.4934691999999998,1
1526,9.12001,0.24081421,1.4743195,1
1527,9.0793,0.19293213,1.4551544,1
1528,9.099655,0.15461731,1.409668,1
1529,9.146347,0.14982605,1.4156494,1
1530,9.117614999999999,0.15940857,1.4192505,1
1531,9.100845,0.19172668,1.4348145,1
1532,9.163101,0.17376709,1.4539642,1
1533,9.130783000000001,0.17137146,1.4324188,1
1534,9.096069,0.20130920000000002,1.409668,1
1535,9.086487,0.20249939,1.4431915000000002,1
1536,9.115219,0.19172668,1.4934691999999998,1
1537,9.122391,0.18095398,1.4671326,1
1538,9.117614999999999,0.1797638,1.4767151,1
1539,9.118805,0.17855835,1.4814911,1
1540,9.105637,0.16539001,1.4479828000000001,1
1541,9.116408999999999,0.14503479,1.4551544,1
1542,9.125992,0.17616272,1.4599457,1
1543,9.137955,0.107925415,1.4611511000000001,1
1544,9.129578,0.16299438,1.4527588,1
1545,9.06134,0.15940857,1.4384003,1
1546,9.102051,0.14743042,1.4443816999999999,1
1547,9.117614999999999,0.19412231,1.4479828000000001,1
1548,9.124786,0.15820313,1.433609,1
1549,9.1128235,0.16059875,1.449173,1
1550,9.220566,0.13067627,1.394104,1
1551,9.181061,0.13905334,1.418045,1
1552,9.042191,0.17616272,1.5138245000000001,1
1553,9.100845,0.17616272,1.5617065,1
1554,9.183456,0.119903564,1.4862823,1
1555,9.096069,0.13067627,1.3988953000000002,1
1556,9.06134,0.17497253,1.4695281999999998,1
1557,9.111618,0.14025879,1.5138245000000001,1
1558,9.13916,0.18214417,1.4958649,1
1559,9.159514999999999,0.20729065,1.473114,1
1560,9.084091,0.20370483,1.4467773000000002,1
1561,9.072113,0.15222168,1.4384003,1
1562,9.145142,0.16299438,1.4324188,1
1563,9.137955,0.14503479,1.3821411,1
1564,9.145142,0.18095398,1.3797455,1
1565,9.096069,0.16897583,1.3582001,1
1566,9.141556,0.15222168,1.3917084,1
1567,9.172684,0.14503479,1.4204407,1
1568,9.128387,0.1953125,1.3797455,1
1569,9.086487,0.17497253,1.3785399999999999,1
1570,9.146347,0.13186646,1.370163,1
1571,9.145142,0.110321045,1.315094,1
1572,9.13916,0.12948608,1.3558044,1
1573,9.12001,0.19651794,1.3761444,1
1574,9.105637,0.16059875,1.3809357,1
1575,9.121201,0.15820313,1.349823,1
1576,9.14035,0.16299438,1.3450316999999998,1
1577,9.178664999999999,0.13546753,1.3402405000000002,1
1578,9.123596000000001,0.16419983,1.3857268999999999,1
1579,9.118805,0.15342712,1.3545989999999999,1
1580,9.106842,0.16778564,1.3486176,1
1581,9.131973,0.14982605,1.3569946000000002,1
1582,9.108032000000001,0.18574524,1.2923584,1
1583,9.161896,0.14982605,1.315094,1
1584,9.183456,0.14503479,1.291153,1
1585,9.044586,0.14743042,1.3270721,1
1586,9.082901,0.1510315,1.3605957,1
1587,9.173874,0.11631775,1.3294678,1
1588,9.13916,0.17137146,1.2684174,1
1589,9.114014,0.16897583,1.3270721,1
1590,9.099655,0.15820313,1.3522034,1
1591,9.130783000000001,0.13786316,1.3450316999999998,1
1592,9.117614999999999,0.12828064,1.3977051,1
1593,9.088882,0.15222168,1.4060822,1
1594,9.076903999999999,0.20130920000000002,1.3953094,1
1595,9.135558999999999,0.2192688,1.3845367,1
1596,9.123596000000001,0.20489502,1.3126984,1
1597,9.130783000000001,0.13186646,1.3139038,1
1598,9.110428,0.16778564,1.3270721,1
1599,9.127182000000001,0.1330719,1.3605957,1
1600,9.181061,0.14863586,1.3665771,1
1601,9.142746,0.15820313,1.3282623,1
1602,9.136764999999999,0.16778564,1.2755889999999999,1
1603,9.105637,0.1510315,1.3294678,1
1604,9.149933,0.115112305,1.3641815000000002,1
1605,9.163101,0.11631775,1.3689728,1
1606,9.129578,0.098358154,1.3474274,1
1607,9.135558999999999,0.098358154,1.370163,1
1608,9.164291,0.098358154,1.4048767,1
1609,9.142746,0.112716675,1.4240416999999999,1
1610,9.133179,0.083984375,1.449173,1
1611,9.100845,0.08279419,1.4120636,1
1612,9.123596000000001,0.12709045,1.4707184,1
1613,9.146347,0.12588501,1.4719238000000001,1
1614,9.13916,0.10314941400000001,1.4790955,1
1615,9.103241,0.15940857,1.4934691999999998,1
1616,9.110428,0.14503479,1.4814911,1
1617,9.171478,0.14743042,1.497055,1
1618,9.0793,0.15701294,1.4312133999999999,1
1619,9.050568,0.17137146,1.4862823,1
1620,9.153519000000001,0.17376709,1.4659271,1
1621,9.157119999999999,0.1510315,1.4324188,1
1622,9.055359,0.18214417,1.3414306999999999,1
1623,9.102051,0.18693542,1.4156494,1
1624,9.149933,0.13067627,1.4419861,1
1625,9.145142,0.105529785,1.4455871999999999,1
1626,9.090073,0.19293213,1.5186005,1
1627,9.085281,0.19293213,1.4838867,1
1628,9.087677000000001,0.18933105,1.4898833999999999,1
1629,9.110428,0.13786316,1.45755,1
1630,9.128387,0.1618042,1.4228363000000002,1
1631,9.118805,0.17736816,1.4048767,1
1632,9.127182000000001,0.17137146,1.4587555,1
1633,9.163101,0.14025879,1.473114,1
1634,9.134369,0.17497253,1.4300232,1
1635,9.091277999999999,0.16539001,1.4527588,1
1636,9.122391,0.14863586,1.4743195,1
1637,9.153519000000001,0.14144897,1.4647369,1
1638,9.123596000000001,0.13546753,1.4551544,1
1639,9.103241,0.13067627,1.4479828000000001,1
1640,9.082901,0.14263916,1.4647369,1
1641,9.12001,0.15461731,1.4623413,1
1642,9.111618,0.14982605,1.5018463,1
1643,9.094864,0.15580750000000002,1.4479828000000001,1
1644,9.12001,0.16539001,1.4659271,1
1645,9.116408999999999,0.14982605,1.4635468,1
1646,9.131973,0.13186646,1.449173,1
1647,9.129578,0.1330719,1.4874878,1
1648,9.104446000000001,0.12709045,1.4443816999999999,1
1649,9.088882,0.17616272,1.5186005,1
1650,9.148727000000001,0.14863586,1.4958649,1
1651,9.182250999999999,0.11152649,1.4707184,1
1652,9.045776,0.14743042,1.5018463,1
1653,9.088882,0.16897583,1.5114288,1
1654,9.182250999999999,0.16659546,1.4647369,1
1655,9.143951,0.15342712,1.4216461,1
1656,9.066132000000001,0.16539001,1.4060822,1
1657,9.091277999999999,0.12588501,1.4611511000000001,1
1658,9.164291,0.11869812,1.4659271,1
1659,9.148727000000001,0.14144897,1.4647369,1
1660,9.115219,0.1845398,1.4647369,1
1661,9.110428,0.18095398,1.5401611000000002,1
1662,9.063736,0.14025879,1.5353698999999998,1
1663,9.118805,0.11392212,1.5329742,1
1664,9.111618,0.17018127,1.4635468,1
1665,9.12001,0.12828064,1.4659271,1
1666,9.111618,0.18095398,1.504242,1
1667,9.172684,0.16659546,1.497055,1
1668,9.159514999999999,0.14863586,1.4084778,1
1669,9.0972595,0.11631775,1.4312133999999999,1
1670,9.128387,0.076812744,1.3857268999999999,1
1671,9.165497,0.03012085,1.4060822,1
1672,9.194229,0.046875,1.418045,1
1673,9.141556,0.11152649,1.4372101000000002,1
1674,9.129578,0.19412231,1.4659271,1
1675,9.038605,0.2515869,1.4228363000000002,1
1676,9.031417999999999,0.27552795,1.4204407,1
1677,9.087677000000001,0.1953125,1.4192505,1
1678,9.131973,0.1905365,1.4060822,1
1679,9.153519000000001,0.17497253,1.4240416999999999,1
1680,9.117614999999999,0.20249939,1.4084778,1
1681,9.121201,0.19651794,1.3821411,1
1682,9.151123,0.22764587,1.3833313,1
1683,9.114014,0.20848083,1.4120636,1
1684,9.118805,0.19891357,1.4767151,1
1685,9.181061,0.17855835,1.4695281999999998,1
1686,9.208588,0.19770813,1.3162994,1
1687,9.0577545,0.26235962,1.2384796,1
1688,8.990723,0.23602295,1.2492523000000002,1
1689,9.175064,0.23123169,1.3246765,1
1690,9.240905999999999,0.17855835,1.3091125,1
1691,9.143951,0.17616272,1.246872,1
1692,9.154724,0.18334961,1.2732086,1
1693,9.157119999999999,0.18334961,1.2947540000000002,1
1694,9.09845,0.20848083,1.3055267,1
1695,9.033813,0.18933105,1.3450316999999998,1
1696,9.090073,0.19651794,1.334259,1
1697,9.128387,0.16897583,1.3198853000000002,1
1698,9.155914,0.19172668,1.2504578000000002,1
1699,9.165497,0.17137146,1.2564392,1
1700,9.142746,0.13067627,1.2456665,1
1701,9.091277999999999,0.16659546,1.2337036,1
1702,9.127182000000001,0.16419983,1.2767944,1
1703,9.14035,0.20370483,1.2492523000000002,1
1704,9.14035,0.1845398,1.2624207,1
1705,9.13916,0.15940857,1.2600403,1
1706,9.13916,0.15701294,1.2564392,1
1707,9.117614999999999,0.1797638,1.3007355,1
1708,9.145142,0.18693542,1.3115082,1
1709,9.136764999999999,0.17736816,1.3079223999999998,1
1710,9.130783000000001,0.17376709,1.2863617,1
1711,9.159514999999999,0.18334961,1.2624207,1
1712,9.137955,0.25875854,1.2732086,1
1713,9.12001,0.20010376,1.2887573,1
1714,9.117614999999999,0.18693542,1.2779846000000001,1
1715,9.110428,0.17736816,1.2636261,1
1716,9.134369,0.19770813,1.3126984,1
1717,9.157119999999999,0.18214417,1.370163,1
1718,9.228943,0.16659546,1.3593903,1
1719,9.125992,0.16299438,1.4228363000000002,1
1720,9.094864,0.1797638,1.4599457,1
1721,9.17746,0.19172668,1.5222015,1
1722,9.303162,0.2240448,1.6251526,1
1723,9.260071,0.26115417,1.7580261000000001,1
1724,9.279221000000001,0.22883606,1.8502044999999998,1
1725,9.108032000000001,0.21687317,1.6538848999999998,1
1726,8.656723,0.2635498,1.2648163000000001,1
1727,8.904525999999999,0.24320984,0.97273254,1
1728,9.068527,0.15820313,0.9990691999999999,1
1729,9.100845,0.112716675,1.0038605,1
1730,9.109222,0.105529785,0.7620392,1
1731,9.031417999999999,-0.03213501,0.5381775,1
1732,9.023041000000001,0.008575439,0.5345916999999999,1
1733,9.216965,0.08518982,0.7752074999999999,1
1734,9.357025,0.062438965,1.0050507,1
1735,9.499481,-0.026138306,1.2480621,1
1736,9.361816000000001,0.0013885498,1.4898833999999999,1
1737,9.114014,0.079193115,1.543747,1
1738,8.945221,0.107925415,1.4563598999999998,1
1739,8.991913,0.10433959999999999,1.2732086,1
1740,9.12001,0.15940857,1.1690521,1
1741,9.226547,0.23362732,1.1989746000000001,1
1742,9.252884,0.2300415,1.2636261,1
1743,9.234924000000001,0.18693542,1.2767944,1
1744,9.184647,0.105529785,1.373764,1
1745,9.152328500000001,0.112716675,1.3977051,1
1746,9.125992,0.16059875,1.4001006999999999,1
1747,9.148727000000001,0.22045898,1.394104,1
1748,9.110428,0.2695465,1.3126984,1
1749,9.114014,0.25875854,1.2755889999999999,1
1750,9.184647,0.18214417,1.255249,1
1751,9.123596000000001,0.10433959999999999,1.2348938,1
1752,8.969161999999999,0.13905334,1.2660216999999998,1
1753,9.152328500000001,0.17497253,1.2540436000000001,1
1754,9.260071,0.18693542,1.2013702,1
1755,9.179855,0.27313232,1.1343383999999999,1
1756,9.155914,0.29467773,1.1929931999999999,1
1757,9.152328500000001,0.21208191,1.3126984,1
1758,9.136764999999999,0.18574524,1.3378448,1
1759,9.0972595,0.20010376,1.3091125,1
1760,9.086487,0.1797638,1.2684174,1
1761,9.080505,0.14503479,1.255249,1
1762,9.116408999999999,0.14144897,1.2289124,1
1763,9.143951,0.20370483,1.2037659,1
1764,9.164291,0.21208191,1.2109528,1
1765,9.118805,0.2192688,1.2049713,1
1766,9.142746,0.23362732,1.3115082,1
1767,9.161896,0.20729065,1.3067169,1
1768,9.087677000000001,0.21447754,1.2935486,1
1769,9.104446000000001,0.15940857,1.3091125,1
1770,9.110428,0.16419983,1.3031311,1
1771,9.148727000000001,0.10913086,1.236084,1
1772,9.142746,0.18214417,1.315094,1
1773,9.157119999999999,0.13186646,1.3378448,1
1774,9.148727000000001,0.12709045,1.3186951,1
1775,9.152328500000001,0.16539001,1.2803802,1
1776,9.127182000000001,0.16419983,1.2289124,1
1777,9.092467999999998,0.18214417,1.3055267,1
1778,9.1128235,0.13905334,1.3474274,1
1779,9.170288000000001,0.13905334,1.3402405000000002,1
1780,9.130783000000001,0.13426208,1.2923584,1
1781,9.114014,0.15222168,1.3174896,1
1782,9.165497,0.14863586,1.3462219,1
1783,9.172684,0.105529785,1.2564392,1
1784,9.076903999999999,0.14144897,1.2863617,1
1785,9.066132000000001,0.1618042,1.3749542,1
1786,9.234924000000001,0.15940857,1.3474274,1
1787,9.216965,0.18814087,1.2588348,1
1788,9.09845,0.19891357,1.270813,1
1789,9.052963,0.13426208,1.3426361,1
1790,9.085281,0.17497253,1.3545989999999999,1
1791,9.15831,0.18693542,1.3593903,1
1792,9.127182000000001,0.23123169,1.3270721,1
1793,9.109222,0.18933105,1.3330536,1
1794,9.148727000000001,0.21806335,1.3677673000000001,1
1795,9.133179,0.20489502,1.4084778,1
1796,9.082901,0.20610046,1.3558044,1
1797,9.074508999999999,0.17497253,1.310318,1
1798,9.082901,0.21687317,1.3115082,1
1799,9.131973,0.19172668,1.3234863000000001,1
1800,9.122391,0.19293213,1.2791901,1
1801,9.209793,0.17376709,1.3210906999999998,1
1802,9.165497,0.14863586,1.4144591999999998,1
1803,9.148727000000001,0.17855835,1.3929138,1
1804,9.13916,0.16659546,1.4001006999999999,1
1805,9.102051,0.16778564,1.3677673000000001,1
1806,9.125992,0.15701294,1.3773499,1
1807,9.135558999999999,0.17376709,1.291153,1
1808,9.12001,0.13905334,1.3186951,1
1809,9.154724,0.15580750000000002,1.3031311,1
1810,9.185837,0.12469482400000001,1.3366547,1
1811,9.190628,0.13546753,1.3558044,1
1812,9.145142,0.14263916,1.3725586,1
1813,9.096069,0.16778564,1.4001006999999999,1
1814,9.0733185,0.1905365,1.3857268999999999,1
1815,9.106842,0.20729065,1.4192505,1
1816,9.110428,0.20010376,1.4264374,1
1817,9.17746,0.19891357,1.473114,1
1818,9.184647,0.18095398,1.4503784,1
1819,9.146347,0.18814087,1.4515686,1
1820,9.106842,0.21087646,1.4240416999999999,1
1821,9.086487,0.18574524,1.4252319,1
1822,9.164291,0.18095398,1.3210906999999998,1
1823,9.147537,0.19891357,1.2827758999999999,1
1824,9.0733185,0.17137146,1.3953094,1
1825,9.154724,0.19172668,1.4395905,1
1826,9.23732,0.15701294,1.4060822,1
1827,9.125992,0.15701294,1.2791901,1
1828,9.06134,0.21447754,1.2995299999999999,1
1829,9.087677000000001,0.17736816,1.4084778,1
1830,9.171478,0.15940857,1.4384003,1
1831,9.111618,0.1618042,1.3761444,1
1832,9.103241,0.22285461,1.3402405000000002,1
1833,9.129578,0.19293213,1.3366547,1
1834,9.130783000000001,0.14503479,1.3186951,1
1835,9.149933,0.17137146,1.3294678,1
1836,9.118805,0.19651794,1.3366547,1
1837,9.09845,0.16059875,1.3354492,1
1838,9.116408999999999,0.18693542,1.3845367,1
1839,9.141556,0.14503479,1.3438263000000001,1
1840,9.129578,0.14863586,1.3522034,1
1841,9.116408999999999,0.15701294,1.3773499,1
1842,9.116408999999999,0.12828064,1.3486176,1
1843,9.161896,0.17137146,1.4001006999999999,1
1844,9.133179,0.11869812,1.3629761,1
1845,9.093674,0.14263916,1.3797455,1
1846,9.129578,0.17018127,1.3270721,1
1847,9.145142,0.16539001,1.3246765,1
1848,9.145142,0.15940857,1.3426361,1
1849,9.166687,0.16897583,1.349823,1
1850,9.13916,0.20610046,1.3162994,1
1851,9.115219,0.17137146,1.3366547,1
1852,9.122391,0.14624023,1.3510132,1
1853,9.118805,0.13546753,1.3545989999999999,1
1854,9.103241,0.17137146,1.3833313,1
1855,9.116408999999999,0.17855835,1.3988953000000002,1
1856,9.159514999999999,0.15461731,1.3534088,1
1857,9.218169999999999,0.1618042,1.3378448,1
1858,9.056564,0.16419983,1.3522034,1
1859,9.06134,0.17616272,1.349823,1
1860,9.195419000000001,0.16059875,1.3833313,1
1861,9.196625,0.19770813,1.3234863000000001,1
1862,9.091277999999999,0.19293213,1.2875671,1
1863,9.096069,0.14982605,1.3354492,1
1864,9.163101,0.14263916,1.3653716999999999,1
1865,9.179855,0.15940857,1.3486176,1
1866,9.111618,0.17497253,1.3234863000000001,1
1867,9.110428,0.16778564,1.3749542,1
1868,9.137955,0.15701294,1.3617858999999999,1
1869,9.124786,0.17736816,1.3378448,1
1870,9.114014,0.16897583,1.3162994,1
1871,9.100845,0.17018127,1.3629761,1
1872,9.09845,0.16539001,1.4156494,1
1873,9.14035,0.15222168,1.4779053,1
1874,9.122391,0.1330719,1.4216461,1
1875,9.06134,0.20130920000000002,1.3797455,1
1876,9.086487,0.18574524,1.4743195,1
1877,9.130783000000001,0.16539001,1.449173,1
1878,9.152328500000001,0.15342712,1.4779053,1
1879,9.137955,0.15461731,1.4156494,1
1880,9.121201,0.16659546,1.4767151,1
1881,9.105637,0.17736816,1.473114,1
1882,9.116408999999999,0.18214417,1.4384003,1
1883,9.122391,0.16659546,1.4563598999999998,1
1884,9.118805,0.15820313,1.4599457,1
1885,9.129578,0.14384460000000002,1.4826965,1
1886,9.115219,0.12709045,1.4300232,1
1887,9.093674,0.112716675,1.433609,1
1888,9.136764999999999,0.119903564,1.4144591999999998,1
1889,9.147537,0.107925415,1.3881226,1
1890,9.07811,0.12948608,1.4431915000000002,1
1891,9.167892,0.12948608,1.4850922,1
1892,9.194229,0.12828064,1.4372101000000002,1
1893,9.096069,0.16299438,1.334259,1
1894,9.074508999999999,0.1618042,1.3821411,1
1895,9.096069,0.16059875,1.4587555,1
1896,9.157119999999999,0.10433959999999999,1.504242,1
1897,9.137955,0.13786316,1.5006561,1
1898,9.090073,0.16419983,1.4922638000000001,1
1899,9.094864,0.16539001,1.4862823,1
1900,9.103241,0.1330719,1.4683228000000002,1
1901,9.12001,0.16778564,1.4024811000000001,1
1902,9.104446000000001,0.15580750000000002,1.4024811000000001,1
1903,9.14035,0.14624023,1.433609,1
1904,9.143951,0.117507935,1.4671326,1
1905,9.111618,0.12109375,1.4611511000000001,1
1906,9.0793,0.17018127,1.4372101000000002,1
1907,9.108032000000001,0.16059875,1.4623413,1
1908,9.116408999999999,0.14982605,1.528183,1
1909,9.154724,0.10194397,1.4826965,1
1910,9.106842,0.13905334,1.4874878,1
1911,9.088882,0.18095398,1.4599457,1
1912,9.148727000000001,0.1618042,1.4922638000000001,1
1913,9.12001,0.16299438,1.4288177,1
1914,9.128387,0.14624023,1.4563598999999998,1
1915,9.108032000000001,0.14144897,1.4372101000000002,1
1916,9.118805,0.1618042,1.45755,1
1917,9.114014,0.16539001,1.4551544,1
1918,9.094864,0.16778564,1.4515686,1
1919,9.160706,0.15820313,1.4384003,1
1920,9.151123,0.16897583,1.4084778,1
1921,9.084091,0.13786316,1.4360046,1
1922,9.104446000000001,0.14144897,1.4443816999999999,1
1923,9.191833500000001,0.17497253,1.5078278,1
1924,9.157119999999999,0.17616272,1.4539642,1
1925,9.0577545,0.17736816,1.4108733999999998,1
1926,9.103241,0.16897583,1.4503784,1
1927,9.145142,0.13546753,1.4850922,1
1928,9.163101,0.13186646,1.4898833999999999,1
1929,9.106842,0.17736816,1.5162201000000002,1
1930,9.062546000000001,0.17137146,1.4395905,1
1931,9.102051,0.17736816,1.4671326,1
1932,9.124786,0.14503479,1.3893127,1
1933,9.148727000000001,0.13426208,1.3426361,1
1934,9.115219,0.13665771,1.3474274,1
1935,9.145142,0.119903564,1.3510132,1
1936,9.137955,0.13786316,1.3797455,1
1937,9.136764999999999,0.1618042,1.2983398000000002,1
1938,9.096069,0.13186646,1.3186951,1
1939,9.153519000000001,0.12348938,1.3641815000000002,1
1940,9.171478,0.10433959999999999,1.3821411,1
1941,9.159514999999999,0.12588501,1.394104,1
1942,9.106842,0.14025879,1.4348145,1
1943,9.099655,0.12948608,1.4755096,1
1944,9.108032000000001,0.1618042,1.4599457,1
1945,9.121201,0.14025879,1.4060822,1
1946,9.123596000000001,0.14863586,1.409668,1
1947,9.145142,0.14503479,1.4431915000000002,1
1948,9.141556,0.14503479,1.4443816999999999,1
1949,9.155914,0.11869812,1.3809357,1
1950,9.105637,0.119903564,1.3139038,1
1951,9.14035,0.08279419,1.3486176,1
1952,9.232529,0.11152649,1.2504578000000002,1
1953,9.100845,0.12828064,1.3270721,1
1954,9.1128235,0.13067627,1.3115082,1
1955,9.190628,0.11152649,1.3977051,1
1956,9.153519000000001,0.16419983,1.3007355,1
1957,9.07811,0.17736816,1.2672119,1
1958,9.122391,0.18334961,1.3761444,1
1959,9.182250999999999,0.115112305,1.3893127,1
1960,9.170288000000001,0.13186646,1.3881226,1
1961,9.15831,0.14025879,1.3761444,1
1962,9.105637,0.21208191,1.3605957,1
1963,9.102051,0.18933105,1.3378448,1
1964,9.146347,0.19293213,1.2779846000000001,1
1965,9.141556,0.17736816,1.2624207,1
1966,9.135558999999999,0.20130920000000002,1.3881226,1
1967,9.172684,0.1510315,1.4288177,1
1968,9.171478,0.14263916,1.4443816999999999,1
1969,9.117614999999999,0.1797638,1.4372101000000002,1
1970,9.067337,0.22644043,1.4515686,1
1971,9.091277999999999,0.20130920000000002,1.4527588,1
1972,9.115219,0.18933105,1.4838867,1
1973,9.134369,0.17137146,1.4623413,1
1974,9.157119999999999,0.15701294,1.4707184,1
1975,9.117614999999999,0.15342712,1.4276276,1
1976,9.099655,0.1797638,1.4455871999999999,1
1977,9.108032000000001,0.16299438,1.3713684,1
1978,9.152328500000001,0.14144897,1.3486176,1
1979,9.137955,0.17497253,1.3629761,1
1980,9.143951,0.13905334,1.3953094,1
1981,9.128387,0.17137146,1.4850922,1
1982,9.074508999999999,0.15580750000000002,1.5198059,1
1983,9.155914,0.13905334,1.4300232,1
1984,9.09845,0.16299438,1.4515686,1
1985,9.038605,0.20130920000000002,1.4599457,1
1986,9.172684,0.20130920000000002,1.4168549,1
1987,9.215775,0.18095398,1.4384003,1
1988,9.0733185,0.20848083,1.330658,1
1989,9.0793,0.16419983,1.4252319,1
1990,9.141556,0.1618042,1.4886780000000002,1
1991,9.152328500000001,0.1510315,1.449173,1
1992,9.124786,0.20489502,1.4611511000000001,1
1993,9.100845,0.19651794,1.4707184,1
1994,9.0972595,0.22285461,1.4862823,1
1995,9.116408999999999,0.20370483,1.4467773000000002,1
1996,9.148727000000001,0.18214417,1.4240416999999999,1
1997,9.117614999999999,0.19172668,1.4276276,1
1998,9.099655,0.15461731,1.4300232,1
1999,9.161896,0.13186646,1.4228363000000002,1
2000,9.155914,0.20610046,1.409668,1
2001,9.096069,0.16539001,1.4395905,1
2002,9.105637,0.1797638,1.4324188,1
2003,9.141556,0.14743042,1.4803008999999998,1
2004,9.141556,0.13786316,1.4527588,1
2005,9.105637,0.14982605,1.4695281999999998,1
2006,9.099655,0.12588501,1.4455871999999999,1
2007,9.129578,0.14743042,1.4910736,1
2008,9.121201,0.17018127,1.4467773000000002,1
2009,9.0972595,0.17018127,1.4707184,1
2010,9.125992,0.18334961,1.4348145,1
2011,9.118805,0.1797638,1.4527588,1
2012,9.136764999999999,0.12348938,1.4288177,1
2013,9.093674,0.20489502,1.4862823,1
2014,9.054169,0.19770813,1.4683228000000002,1
2015,9.133179,0.21566772,1.4647369,1
2016,9.175064,0.16299438,1.4048767,1
2017,9.0793,0.15940857,1.433609,1
2018,9.102051,0.1797638,1.5006561,1
2019,9.196625,0.1618042,1.4168549,1
2020,9.110428,0.17497253,1.3797455,1
2021,9.032608,0.19172668,1.3929138,1
2022,9.0793,0.1510315,1.4384003,1
2023,9.146347,0.14624023,1.4814911,1
2024,9.149933,0.15701294,1.449173,1
2025,9.091277999999999,0.18814087,1.4527588,1
2026,9.093674,0.23721313,1.5018463,1
2027,9.136764999999999,0.18933105,1.4360046,1
2028,9.0972595,0.17736816,1.4372101000000002,1
2029,9.106842,0.16897583,1.413269,1
2030,9.096069,0.16299438,1.4372101000000002,1
2031,9.13916,0.16419983,1.4623413,1
2032,9.142746,0.16897583,1.5162201000000002,1
2033,9.127182000000001,0.16897583,1.4348145,1
2034,9.093674,0.18693542,1.449173,1
2035,9.110428,0.16299438,1.45755,1
2036,9.117614999999999,0.14263916,1.4515686,1
2037,9.118805,0.17376709,1.4611511000000001,1
2038,9.092467999999998,0.16539001,1.45755,1
2039,9.1128235,0.15580750000000002,1.4695281999999998,1
2040,9.149933,0.1510315,1.4384003,1
2041,9.137955,0.17018127,1.4431915000000002,1
2042,9.115219,0.20010376,1.5006561,1
2043,9.109222,0.19651794,1.5186005,1
2044,9.130783000000001,0.12948608,1.4599457,1
2045,9.108032000000001,0.15222168,1.4790955,1
2046,9.110428,0.17376709,1.4838867,1
2047,9.091277999999999,0.2240448,1.5114288,1
2048,9.127182000000001,0.18574524,1.4587555,1
2049,9.178664999999999,0.16659546,1.4120636,1
2050,9.06134,0.17736816,1.409668,1
2051,9.080505,0.18814087,1.3833313,1
2052,9.222961,0.18214417,1.433609,1
2053,9.202606,0.13665771,1.3486176,1
2054,9.092467999999998,0.14263916,1.3079223999999998,1
2055,9.09845,0.17736816,1.3510132,1
2056,9.149933,0.11631775,1.4300232,1
2057,9.148727000000001,0.115112305,1.3845367,1
2058,9.088882,0.14982605,1.3569946000000002,1
2059,9.096069,0.15580750000000002,1.3653716999999999,1
2060,9.116408999999999,0.15701294,1.3869323999999998,1
2061,9.173874,0.1510315,1.3198853000000002,1
2062,9.147537,0.17736816,1.3665771,1
2063,9.1128235,0.119903564,1.3210906999999998,1
2064,9.100845,0.13665771,1.3929138,1
2065,9.181061,0.17018127,1.4108733999999998,1
2066,9.099655,0.18334961,1.3354492,1
2067,9.108032000000001,0.1797638,1.3414306999999999,1
2068,9.088882,0.1797638,1.3438263000000001,1
2069,9.127182000000001,0.13186646,1.3318633999999998,1
2070,9.125992,0.1725769,1.3534088,1
2071,9.148727000000001,0.18933105,1.3474274,1
2072,9.128387,0.1845398,1.3318633999999998,1
2073,9.13916,0.15342712,1.3139038,1
2074,9.129578,0.14982605,1.2636261,1
2075,9.121201,0.1510315,1.3139038,1
2076,9.122391,0.14863586,1.3330536,1
2077,9.128387,0.14384460000000002,1.3605957,1
2078,9.131973,0.13067627,1.3450316999999998,1
2079,9.102051,0.16419983,1.3917084,1
2080,9.115219,0.1797638,1.3785399999999999,1
2081,9.175064,0.14624023,1.3713684,1
2082,9.161896,0.14025879,1.3162994,1
2083,9.0577545,0.17018127,1.334259,1
2084,9.130783000000001,0.1797638,1.3629761,1
2085,9.224152,0.15820313,1.3821411,1
2086,9.123596000000001,0.1905365,1.2983398000000002,1
2087,9.058945,0.17736816,1.2899628,1
2088,9.114014,0.17018127,1.413269,1
2089,9.178664999999999,0.14982605,1.473114,1
2090,9.149933,0.14863586,1.4443816999999999,1
2091,9.105637,0.17497253,1.418045,1
2092,9.088882,0.19651794,1.4826965,1
2093,9.121201,0.19891357,1.4982605,1
2094,9.111618,0.20370483,1.4407959,1
2095,9.090073,0.17736816,1.4372101000000002,1
2096,9.091277999999999,0.18814087,1.473114,1
2097,9.110428,0.16897583,1.5066376,1
2098,9.143951,0.20370483,1.4850922,1
2099,9.108032000000001,0.20010376,1.4240416999999999,1
2100,9.068527,0.1845398,1.4288177,1
2101,9.137955,0.17018127,1.4790955,1
2102,9.12001,0.1845398,1.4467773000000002,1
2103,9.141556,0.18214417,1.4659271,1
2104,9.118805,0.19172668,1.4623413,1
2105,9.081696,0.20489502,1.5078278,1
2106,9.135558999999999,0.20010376,1.4826965,1
2107,9.137955,0.19172668,1.4587555,1
2108,9.134369,0.16539001,1.497055,1
2109,9.125992,0.19770813,1.4647369,1
2110,9.125992,0.1845398,1.4348145,1
2111,9.118805,0.17376709,1.4395905,1
2112,9.093674,0.19293213,1.4719238000000001,1
2113,9.110428,0.20010376,1.4707184,1
2114,9.164291,0.1797638,1.4240416999999999,1
2115,9.109222,0.17855835,1.4455871999999999,1
2116,9.035003999999999,0.1905365,1.4779053,1
2117,9.14035,0.18814087,1.5222015,1
2118,9.222961,0.18933105,1.4767151,1
2119,9.093674,0.22045898,1.3713684,1
2120,9.048172000000001,0.1953125,1.4587555,1
2121,9.103241,0.11631775,1.4635468,1
2122,9.131973,0.14982605,1.4934691999999998,1
2123,9.160706,0.17018127,1.4755096,1
2124,9.0972595,0.20729065,1.5018463,1
2125,9.096069,0.18814087,1.4886780000000002,1
2126,9.093674,0.19891357,1.4862823,1
2127,9.118805,0.15820313,1.449173,1
2128,9.131973,0.1905365,1.4431915000000002,1
2129,9.102051,0.18214417,1.4719238000000001,1
2130,9.137955,0.18814087,1.4886780000000002,1
2131,9.124786,0.18214417,1.4898833999999999,1
2132,9.114014,0.19412231,1.4850922,1
2133,9.075714,0.16419983,1.497055,1
2134,9.102051,0.17137146,1.5066376,1
2135,9.102051,0.18933105,1.5162201000000002,1
2136,9.129578,0.16419983,1.4946594,1
2137,9.108032000000001,0.17376709,1.5114288,1
2138,9.123596000000001,0.18095398,1.4623413,1
2139,9.103241,0.16659546,1.4803008999999998,1
2140,9.108032000000001,0.1725769,1.4635468,1
2141,9.110428,0.15342712,1.4982605,1
2142,9.115219,0.15940857,1.4838867,1
2143,9.105637,0.17018127,1.504242,1
2144,9.0972595,0.15940857,1.4647369,1
2145,9.114014,0.18214417,1.4635468,1
2146,9.105637,0.17497253,1.473114,1
2147,9.094864,0.16539001,1.5150146,1
2148,9.166687,0.17137146,1.5233917,1
2149,9.166687,0.13786316,1.4527588,1
2150,9.043396000000001,0.15701294,1.4874878,1
2151,9.054169,0.18933105,1.5257874,1
2152,9.153519000000001,0.1725769,1.4755096,1
2153,9.15831,0.15701294,1.4192505,1
2154,9.042191,0.22285461,1.4120636,1
2155,9.111618,0.22164917,1.4551544,1
2156,9.196625,0.14624023,1.5078278,1
2157,9.124786,0.15940857,1.5114288,1
2158,9.067337,0.1797638,1.5856476000000002,1
2159,9.070922999999999,0.20370483,1.5928345,1
2160,9.081696,0.16778564,1.4862823,1
2161,9.136764999999999,0.18095398,1.4348145,1
2162,9.152328500000001,0.17616272,1.4072723,1
2163,9.129578,0.14263916,1.4431915000000002,1
2164,9.127182000000001,0.18334961,1.5209961,1
2165,9.115219,0.16778564,1.5233917,1
2166,9.09845,0.14863586,1.473114,1
2167,9.080505,0.18693542,1.4958649,1
2168,9.093674,0.22045898,1.5449371,1
2169,9.069733,0.20010376,1.5341643999999999,1
2170,9.131973,0.19770813,1.4790955,1
2171,9.085281,0.19172668,1.4479828000000001,1
2172,9.116408999999999,0.2300415,1.5150146,1
2173,9.09845,0.20610046,1.4898833999999999,1
2174,9.147537,0.22164917,1.4611511000000001,1
2175,9.125992,0.17616272,1.4515686,1
2176,9.116408999999999,0.17736816,1.4479828000000001,1
2177,9.106842,0.2348175,1.4372101000000002,1
2178,9.09845,0.19891357,1.4695281999999998,1
2179,9.099655,0.21087646,1.4431915000000002,1
2180,9.114014,0.16778564,1.4060822,1
2181,9.117614999999999,0.18574524,1.418045,1
2182,9.129578,0.17616272,1.4563598999999998,1
2183,9.199005,0.15940857,1.4348145,1
2184,9.080505,0.18334961,1.413269,1
2185,9.041,0.21087646,1.4240416999999999,1
2186,9.153519000000001,0.19172668,1.4467773000000002,1
2187,9.165497,0.16059875,1.433609,1
2188,9.105637,0.18814087,1.330658,1
2189,9.066132000000001,0.15701294,1.3964996,1
2190,9.143951,0.13426208,1.4048767,1
2191,9.12001,0.15461731,1.409668,1
2192,9.070922999999999,0.17616272,1.4072723,1
2193,9.111618,0.16419983,1.394104,1
2194,9.124786,0.18334961,1.4084778,1
2195,9.155914,0.16539001,1.4084778,1
2196,9.146347,0.18814087,1.3964996,1
2197,9.105637,0.19412231,1.3869323999999998,1
2198,9.0972595,0.1618042,1.4563598999999998,1
2199,9.118805,0.14863586,1.4755096,1
2200,9.123596000000001,0.16059875,1.4012909,1
2201,9.116408999999999,0.1618042,1.4108733999999998,1
2202,9.104446000000001,0.19172668,1.4324188,1
2203,9.148727000000001,0.21208191,1.45755,1
2204,9.146347,0.18574524,1.4647369,1
2205,9.118805,0.17497253,1.409668,1
2206,9.094864,0.20249939,1.433609,1
2207,9.091277999999999,0.19412231,1.4958649,1
2208,9.108032000000001,0.18214417,1.4671326,1
2209,9.090073,0.16778564,1.4395905,1
2210,9.110428,0.18574524,1.4647369,1
2211,9.111618,0.20130920000000002,1.4946594,1
2212,9.1128235,0.18574524,1.5401611000000002,1
2213,9.129578,0.16778564,1.5209961,1
2214,9.088882,0.18334961,1.5305786,1
2215,9.129578,0.20968628,1.5269928,1
2216,9.141556,0.1845398,1.5700836,1
2217,9.171478,0.18095398,1.5162201000000002,1
2218,9.041,0.20489502,1.5198059,1
2219,9.114014,0.19891357,1.5030518,1
2220,9.202606,0.18933105,1.4886780000000002,1
2221,9.14035,0.17376709,1.4144591999999998,1
2222,9.049377,0.24081421,1.413269,1
2223,9.0793,0.16778564,1.5030518,1
2224,9.136764999999999,0.16299438,1.5497284,1
2225,9.125992,0.17376709,1.5413513,1
2226,9.063736,0.22883606,1.5449371,1
2227,9.076903999999999,0.20610046,1.552124,1
2228,9.108032000000001,0.19770813,1.5593108999999998,1
2229,9.103241,0.1797638,1.4683228000000002,1
2230,9.110428,0.19891357,1.4707184,1
2231,9.115219,0.20370483,1.5461426,1
2232,9.074508999999999,0.20370483,1.5748749,1
2233,9.13916,0.19651794,1.5712738000000002,1
2234,9.087677000000001,0.18693542,1.5198059,1
2235,9.096069,0.1845398,1.497055,1
2236,9.102051,0.20249939,1.543747,1
2237,9.105637,0.17855835,1.5449371,1
2238,9.137955,0.15820313,1.528183,1
2239,9.076903999999999,0.17018127,1.5174103,1
2240,9.104446000000001,0.17616272,1.5269928,1
2241,9.103241,0.17736816,1.5641022,1
2242,9.116408999999999,0.20610046,1.5533295,1
2243,9.121201,0.15701294,1.5293732,1
2244,9.127182000000001,0.17736816,1.5449371,1
2245,9.088882,0.1953125,1.5078278,1
2246,9.086487,0.17376709,1.5006561,1
2247,9.102051,0.1845398,1.5078278,1
2248,9.080505,0.20968628,1.528183,1
2249,9.12001,0.17137146,1.5473328000000002,1
2250,9.106842,0.17497253,1.5509338,1
2251,9.116408999999999,0.16897583,1.5461426,1
2252,9.088882,0.19651794,1.53656,1
2253,9.081696,0.1618042,1.5688782,1
2254,9.117614999999999,0.1905365,1.5222015,1
2255,9.134369,0.15940857,1.5341643999999999,1
2256,9.056564,0.18095398,1.5425415,1
2257,9.069733,0.15940857,1.5533295,1
2258,9.167892,0.14503479,1.5497284,1
2259,9.123596000000001,0.17616272,1.4850922,1
2260,9.076903999999999,0.19412231,1.4659271,1
2261,9.096069,0.16659546,1.5700836,1
2262,9.136764999999999,0.15222168,1.5581055,1
2263,9.122391,0.13786316,1.5712738000000002,1
2264,9.0793,0.19293213,1.5892334,1
2265,9.063736,0.18334961,1.6036072000000001,1
2266,9.102051,0.16539001,1.6119843,1
2267,9.092467999999998,0.16419983,1.583252,1
2268,9.088882,0.1797638,1.567688,1
2269,9.091277999999999,0.18933105,1.4946594,1
2270,9.099655,0.1845398,1.4862823,1
2271,9.136764999999999,0.18095398,1.5605011,1
2272,9.137955,0.21087646,1.5449371,1
2273,9.110428,0.17855835,1.5257874,1
2274,9.088882,0.16659546,1.5389556999999998,1
2275,9.102051,0.16659546,1.5150146,1
2276,9.096069,0.14624023,1.5114288,1
2277,9.085281,0.18334961,1.5198059,1
2278,9.088882,0.19891357,1.504242,1
2279,9.117614999999999,0.1953125,1.5102233999999999,1
2280,9.124786,0.20130920000000002,1.4982605,1
2281,9.137955,0.20489502,1.4300232,1
2282,9.125992,0.1797638,1.4312133999999999,1
2283,9.134369,0.1618042,1.4001006999999999,1
2284,9.102051,0.16778564,1.4204407,1
2285,9.117614999999999,0.17736816,1.4001006999999999,1
2286,9.102051,0.1797638,1.4288177,1
2287,9.100845,0.15222168,1.4204407,1
2288,9.14035,0.17616272,1.4252319,1
2289,9.115219,0.16778564,1.4036865,1
2290,9.124786,0.1953125,1.4168549,1
2291,9.13916,0.14863586,1.4072723,1
2292,9.182250999999999,0.18693542,1.3545989999999999,1
2293,9.033813,0.17855835,1.3857268999999999,1
2294,9.0793,0.20249939,1.4455871999999999,1
2295,9.203796,0.1797638,1.4276276,1
2296,9.155914,0.17497253,1.3414306999999999,1
2297,9.100845,0.19412231,1.3270721,1
2298,9.092467999999998,0.16419983,1.4084778,1
2299,9.128387,0.13665771,1.3893127,1
2300,9.115219,0.16897583,1.3857268999999999,1
2301,9.104446000000001,0.18214417,1.4443816999999999,1
2302,9.108032000000001,0.1725769,1.418045,1
2303,9.151123,0.2132721,1.433609,1
2304,9.15831,0.18214417,1.3869323999999998,1
2305,9.143951,0.21687317,1.3857268999999999,1
2306,9.105637,0.17497253,1.4001006999999999,1
2307,9.075714,0.17616272,1.4767151,1
2308,9.136764999999999,0.17376709,1.4467773000000002,1
2309,9.137955,0.20729065,1.394104,1
2310,9.0972595,0.23242188,1.433609,1
2311,9.109222,0.22883606,1.4635468,1
2312,9.157119999999999,0.2300415,1.4994507,1
2313,9.15831,0.14263916,1.4503784,1
2314,9.128387,0.18095398,1.4264374,1
2315,9.111618,0.1845398,1.4946594,1
2316,9.102051,0.1905365,1.4874878,1
2317,9.137955,0.20130920000000002,1.4659271,1
2318,9.114014,0.19651794,1.4395905,1
2319,9.108032000000001,0.18933105,1.4695281999999998,1
2320,9.130783000000001,0.19891357,1.4934691999999998,1
2321,9.09845,0.16659546,1.45755,1
2322,9.103241,0.20610046,1.4946594,1
2323,9.100845,0.19412231,1.4803008999999998,1
2324,9.103241,0.1797638,1.4743195,1
2325,9.072113,0.18574524,1.4946594,1
2326,9.072113,0.2192688,1.5174103,1
2327,9.163101,0.1953125,1.4922638000000001,1
2328,9.12001,0.15461731,1.4814911,1
2329,9.043396000000001,0.1953125,1.528183,1
2330,9.094864,0.20729065,1.5233917,1
2331,9.175064,0.20010376,1.5162201000000002,1
2332,9.116408999999999,0.1953125,1.4443816999999999,1
2333,9.0793,0.17736816,1.4168549,1
2334,9.127182000000001,0.18814087,1.5126190000000002,1
2335,9.108032000000001,0.17137146,1.5245971999999999,1
2336,9.149933,0.20130920000000002,1.5473328000000002,1
2337,9.084091,0.25637817,1.5449371,1
2338,9.074508999999999,0.20370483,1.5174103,1
2339,9.116408999999999,0.21447754,1.5413513,1
2340,9.128387,0.18095398,1.4910736,1
2341,9.0972595,0.21566772,1.5377655000000001,1
2342,9.130783000000001,0.15580750000000002,1.5257874,1
2343,9.111618,0.20610046,1.5473328000000002,1
2344,9.131973,0.18334961,1.5748749,1
2345,9.099655,0.16897583,1.5269928,1
2346,9.084091,0.22883606,1.4922638000000001,1
2347,9.07811,0.19293213,1.5509338,1
2348,9.109222,0.1725769,1.5628966999999998,1
2349,9.096069,0.18693542,1.5305786,1
2350,9.110428,0.17497253,1.5473328000000002,1
2351,9.100845,0.20610046,1.5317688,1
2352,9.115219,0.19293213,1.5233917,1
2353,9.118805,0.18814087,1.5329742,1
2354,9.096069,0.18334961,1.5293732,1
2355,9.111618,0.15940857,1.5066376,1
2356,9.108032000000001,0.16778564,1.4814911,1
2357,9.074508999999999,0.18574524,1.4934691999999998,1
2358,9.069733,0.1845398,1.5329742,1
2359,9.118805,0.23362732,1.5233917,1
2360,9.092467999999998,0.16539001,1.5593108999999998,1
2361,9.1128235,0.1725769,1.5796661,1
2362,9.09845,0.20489502,1.504242,1
2363,9.1128235,0.17736816,1.5473328000000002,1
2364,9.092467999999998,0.20610046,1.5533295,1
2365,9.050568,0.17855835,1.5473328000000002,1
2366,9.086487,0.18574524,1.583252,1
2367,9.123596000000001,0.18814087,1.552124,1
2368,9.134369,0.13186646,1.53656,1
2369,9.032608,0.17736816,1.6047973999999998,1
2370,9.106842,0.19770813,1.6047973999999998,1
2371,9.166687,0.17018127,1.5617065,1
2372,9.124786,0.19770813,1.4838867,1
2373,9.044586,0.17616272,1.4803008999999998,1
2374,9.100845,0.15701294,1.5533295,1
2375,9.13916,0.14503479,1.5928345,1
2376,9.130783000000001,0.18693542,1.5904388,1
2377,9.064941000000001,0.1797638,1.5485381999999999,1
2378,9.0577545,0.22883606,1.5856476000000002,1
2379,9.137955,0.20370483,1.6000061,1
2380,9.108032000000001,0.18214417,1.5964203000000001,1
2381,9.09845,0.18693542,1.5341643999999999,1
2382,9.086487,0.18574524,1.5030518,1
2383,9.099655,0.20249939,1.53656,1
2384,9.127182000000001,0.19293213,1.6047973999999998,1
2385,9.134369,0.20010376,1.5724791999999999,1
2386,9.116408999999999,0.18574524,1.5377655000000001,1
2387,9.07811,0.18095398,1.5449371,1
2388,9.111618,0.19412231,1.5174103,1
2389,9.136764999999999,0.17616272,1.5150146,1
2390,9.108032000000001,0.1797638,1.5138245000000001,1
2391,9.12001,0.16539001,1.4874878,1
2392,9.096069,0.19412231,1.5018463,1
2393,9.109222,0.19172668,1.5030518,1
2394,9.115219,0.19293213,1.4587555,1
2395,9.136764999999999,0.20610046,1.4719238000000001,1
2396,9.147537,0.1618042,1.4862823,1
2397,9.109222,0.18933105,1.4743195,1
2398,9.084091,0.14982605,1.4324188,1
2399,9.108032000000001,0.21447754,1.4623413,1
2400,9.116408999999999,0.18334961,1.4587555,1
2401,9.118805,0.20010376,1.4826965,1
2402,9.128387,0.16778564,1.4719238000000001,1
2403,9.118805,0.18214417,1.4803008999999998,1
2404,9.0733185,0.20370483,1.4324188,1
2405,9.092467999999998,0.20249939,1.4707184,1
2406,9.172684,0.16897583,1.433609,1
2407,9.111618,0.13186646,1.4419861,1
2408,9.031417999999999,0.17497253,1.4144591999999998,1
2409,9.108032000000001,0.17018127,1.4611511000000001,1
2410,9.197815,0.16419983,1.4384003,1
2411,9.15831,0.20249939,1.3881226,1
2412,9.136764999999999,0.23242188,1.3773499,1
2413,9.103241,0.16419983,1.4312133999999999,1
2414,9.137955,0.14863586,1.418045,1
2415,9.092467999999998,0.21087646,1.418045,1
2416,9.070922999999999,0.15820313,1.3905181999999998,1
2417,9.128387,0.16419983,1.3905181999999998,1
2418,9.172684,0.1725769,1.370163,1
2419,9.155914,0.19770813,1.3809357,1
2420,9.125992,0.1905365,1.3964996,1
2421,9.07811,0.19651794,1.4324188,1
2422,9.075714,0.22285461,1.4372101000000002,1
2423,9.137955,0.17376709,1.4431915000000002,1
2424,9.165497,0.1905365,1.3977051,1
2425,9.133179,0.19293213,1.4156494,1
2426,9.105637,0.20130920000000002,1.5138245000000001,1
2427,9.130783000000001,0.17137146,1.4563598999999998,1
2428,9.136764999999999,0.16897583,1.4958649,1
2429,9.094864,0.1905365,1.4515686,1
2430,9.09845,0.19770813,1.4934691999999998,1
2431,9.151123,0.1905365,1.5138245000000001,1
2432,9.109222,0.19412231,1.4790955,1
2433,9.1128235,0.14384460000000002,1.4515686,1
2434,9.093674,0.19651794,1.4767151,1
2435,9.133179,0.20249939,1.5054321000000002,1
2436,9.103241,0.16659546,1.4946594,1
2437,9.082901,0.21566772,1.4814911,1
2438,9.09845,0.19412231,1.4910736,1
2439,9.118805,0.16897583,1.5449371,1
2440,9.142746,0.19651794,1.5581055,1
2441,9.074508999999999,0.1797638,1.5461426,1
2442,9.127182000000001,0.20130920000000002,1.5485381999999999,1
2443,9.173874,0.18693542,1.5138245000000001,1
2444,9.103241,0.20489502,1.5102233999999999,1
2445,9.030228,0.22764587,1.5389556999999998,1
2446,9.13916,0.19172668,1.5880432,1
2447,9.155914,0.19293213,1.5150146,1
2448,9.076903999999999,0.1953125,1.4539642,1
2449,9.0577545,0.21087646,1.504242,1
2450,9.111618,0.15820313,1.5736694,1
2451,9.134369,0.17855835,1.5736694,1
2452,9.122391,0.17616272,1.5784607,1
2453,9.099655,0.1725769,1.5808563,1
2454,9.094864,0.21806335,1.5736694,1
2455,9.115219,0.17376709,1.5509338,1
2456,9.09845,0.20489502,1.5641022,1
2457,9.074508999999999,0.18334961,1.5377655000000001,1
2458,9.044586,0.19293213,1.5868378,1
2459,9.100845,0.2300415,1.5772705,1
2460,9.147537,0.17736816,1.6143798999999999,1
2461,9.12001,0.19293213,1.5461426,1
2462,9.111618,0.19891357,1.5724791999999999,1
2463,9.0793,0.19172668,1.6119843,1
2464,9.090073,0.17855835,1.6263428,1
2465,9.104446000000001,0.20010376,1.567688,1
2466,9.099655,0.16778564,1.5988159,1
2467,9.102051,0.19293213,1.5928345,1
2468,9.110428,0.1905365,1.6000061,1
2469,9.118805,0.18574524,1.5940246999999999,1
2470,9.096069,0.15461731,1.5533295,1
2471,9.07811,0.17376709,1.5724791999999999,1
2472,9.108032000000001,0.16659546,1.6119843,1
2473,9.100845,0.1725769,1.5772705,1
2474,9.100845,0.19293213,1.5856476000000002,1
2475,9.100845,0.17616272,1.6012115,1
2476,9.108032000000001,0.14982605,1.6119843,1
2477,9.1128235,0.15342712,1.6083832,1
2478,9.069733,0.17736816,1.5916290000000002,1
2479,9.084091,0.17137146,1.5952148000000002,1
2480,9.153519000000001,0.18095398,1.6143798999999999,1
2481,9.129578,0.18095398,1.6059875,1
2482,9.039795,0.16419983,1.5964203000000001,1
2483,9.084091,0.18933105,1.6095886000000001,1
2484,9.181061,0.19770813,1.5772705,1
2485,9.123596000000001,0.18334961,1.5497284,1
2486,9.037399,0.18574524,1.5353698999999998,1
2487,9.094864,0.14863586,1.607193,1
2488,9.131973,0.14743042,1.6083832,1
2489,9.099655,0.16778564,1.6179656999999998,1
2490,9.062546000000001,0.20370483,1.6179656999999998,1
2491,9.093674,0.17855835,1.6431122,1
2492,9.100845,0.15580750000000002,1.6323242,1
2493,9.074508999999999,0.15701294,1.6263428,1
2494,9.0972595,0.16778564,1.607193,1
2495,9.09845,0.16419983,1.5736694,1
2496,9.09845,0.1953125,1.6024017,1
2497,9.128387,0.18574524,1.6371155000000002,1
2498,9.172684,0.22045898,1.5940246999999999,1
2499,9.105637,0.19651794,1.5473328000000002,1
2500,9.111618,0.15342712,1.5617065,1
2501,9.092467999999998,0.18334961,1.5581055,1
2502,9.094864,0.1618042,1.5652924,1
2503,9.093674,0.15940857,1.5329742,1
2504,9.111618,0.21208191,1.5186005,1
2505,9.128387,0.17855835,1.5138245000000001,1
2506,9.13916,0.20968628,1.4850922,1
2507,9.13916,0.19651794,1.4946594,1
2508,9.122391,0.20010376,1.4814911,1
2509,9.093674,0.19293213,1.4922638000000001,1
2510,9.1128235,0.21687317,1.4803008999999998,1
2511,9.100845,0.20249939,1.5198059,1
2512,9.121201,0.21208191,1.5078278,1
2513,9.116408999999999,0.1845398,1.4946594,1
2514,9.118805,0.1953125,1.4862823,1
2515,9.102051,0.1797638,1.4982605,1
2516,9.129578,0.20010376,1.5257874,1
2517,9.200211,0.14863586,1.4395905,1
2518,9.102051,0.20370483,1.4348145,1
2519,9.009872,0.17376709,1.5114288,1
2520,9.134369,0.15820313,1.528183,1
2521,9.199005,0.15820313,1.4898833999999999,1
2522,9.182250999999999,0.16778564,1.4348145,1
2523,9.114014,0.17616272,1.4228363000000002,1
2524,9.105637,0.14025879,1.4683228000000002,1
2525,9.108032000000001,0.18095398,1.4779053,1
2526,9.06015,0.17855835,1.4384003,1
2527,9.066132000000001,0.14384460000000002,1.433609,1
2528,9.105637,0.1330719,1.4886780000000002,1
2529,9.159514999999999,0.1618042,1.4850922,1
2530,9.110428,0.19651794,1.4443816999999999,1
2531,9.090073,0.1953125,1.4635468,1
2532,9.081696,0.19770813,1.5605011,1
2533,9.09845,0.1510315,1.5473328000000002,1
2534,9.100845,0.1725769,1.5257874,1
2535,9.111618,0.17497253,1.4503784,1
2536,9.074508999999999,0.1845398,1.504242,1
2537,9.058945,0.19412231,1.4779053,1
2538,9.123596000000001,0.17137146,1.528183,1
2539,9.131973,0.098358154,1.5952148000000002,1
2540,9.145142,0.16059875,1.6191559,1
2541,9.084091,0.20130920000000002,1.6610565,1
2542,9.064941000000001,0.11869812,1.6550751,1
2543,9.076903999999999,0.11152649,1.6119843,1
2544,9.130783000000001,0.13546753,1.5772705,1
2545,9.108032000000001,0.11631775,1.6562805,1
2546,9.087677000000001,0.098358154,1.6873932,1
2547,9.091277999999999,0.12348938,1.6610565,1
2548,9.109222,0.117507935,1.7185211,1
2549,9.042191,0.12109375,1.7424621999999999,1
2550,9.127182000000001,0.11631775,1.785553,1
2551,9.134369,0.12709045,1.7544403000000002,1
2552,9.025436000000001,0.112716675,1.7544403000000002,1
2553,9.050568,0.12469482400000001,1.7915497,1
2554,9.169083,0.09715271,1.8011169999999999,1
2555,9.182250999999999,0.076812744,1.6718292000000001,1
2556,9.026627000000001,0.06124878,1.5940246999999999,1
2557,8.977554,0.08998108,1.6694488999999997,1
2558,9.050568,0.09715271,1.9364013999999998,1
2559,9.128387,0.10673523,2.0321655,1
2560,9.008666999999999,0.17736816,1.9878692999999998,1
2561,8.977554,0.12709045,2.0046234,1
2562,9.037399,0.12828064,2.0070189999999997,1
2563,9.011063,0.09596252400000001,1.9639282,1
2564,9.023041000000001,0.10433959999999999,1.9770966,1
2565,9.051772999999999,0.09236145,1.9926605,1
2566,9.051772999999999,0.100753784,1.9902648999999997,1
2567,9.045776,0.09715271,2.0166016,1
2568,9.049377,0.10314941400000001,1.9579468,1
2569,9.030228,0.11631775,1.9770966,1
2570,9.023041000000001,0.076812744,2.0070189999999997,1
2571,9.030228,0.112716675,2.0429381999999996,1
2572,9.024231,0.119903564,1.9986419999999998,1
2573,8.970367,0.12109375,2.0393524,1
2574,9.002686,0.079193115,2.0549011000000004,1
2575,9.063736,0.05406189,1.9711151000000002,1
2576,9.049377,0.074417114,2.0369568,1
2577,9.026627000000001,0.07800293,2.0549011000000004,1
2578,9.015854,0.110321045,2.0740662,1
2579,9.013458,0.10433959999999999,2.0201874,1
2580,9.00029,0.13905334,2.070465,1
2581,8.985930999999999,0.11392212,2.03096,1
2582,9.036209,0.12588501,2.02977,1
2583,9.020645,0.115112305,2.0118103,1
2584,9.027832,0.09475708,2.077652,1
2585,8.988327,0.107925415,2.0884247,1
2586,9.006287,0.119903564,2.0872345,1
2587,9.063736,0.09596252400000001,2.093216,1
2588,9.031417999999999,0.105529785,2.0608978,1
2589,8.967972,0.08758545,2.069275,1
2590,8.982330000000001,0.112716675,2.0788574,1
2591,9.052963,0.09236145,2.0872345,1
2592,9.011063,0.122299194,2.0333557,1
2593,8.964386,0.12109375,1.9926605,1
2594,9.017059,0.091171265,2.0585022,1
2595,9.052963,0.08758545,2.0968018,1
2596,9.011063,0.13067627,2.1291351,1
2597,8.97995,0.12469482400000001,2.0920104999999998,1
2598,8.988327,0.14384460000000002,2.1111755000000003,1
2599,9.020645,0.115112305,2.0429381999999996,1
2600,9.017059,0.11152649,2.0321655,1
2601,9.009872,0.10314941400000001,2.0249786,1
2602,8.990723,0.107925415,2.0596924,1
2603,8.944030999999999,0.107925415,2.0908203000000003,1
2604,9.003891000000001,0.0756073,2.0800476000000003,1
2605,8.987122,0.057647705,2.0549011000000004,1
2606,9.002686,0.086380005,2.0680695,1
2607,9.019455,0.117507935,2.0920104999999998,1
2608,9.091277999999999,0.13186646,2.1111755000000003,1
2609,9.0733185,0.18095398,2.0393524,1
2610,9.043396000000001,0.098358154,1.9926605,1
2611,9.081696,0.10194397,1.9052734,1
2612,9.076903999999999,0.10314941400000001,1.8083038,1
2613,9.068527,0.15461731,1.7161255000000002,1
2614,9.07811,0.18693542,1.7412720000000002,1
2615,9.096069,0.1905365,1.8118896,1
2616,9.115219,0.18214417,1.7676086,1
2617,9.087677000000001,0.15580750000000002,1.7388762999999998,1
2618,9.037399,0.117507935,1.7388762999999998,1
2619,9.041,0.100753784,1.7161255000000002,1
2620,9.044586,0.107925415,1.7676086,1
2621,9.090073,0.105529785,1.785553,1
2622,9.099655,0.10913086,1.7687988000000001,1
2623,9.0793,0.10673523,1.7496490000000002,1
2624,9.048172000000001,0.11392212,1.7376709,1
2625,9.048172000000001,0.122299194,1.6981659,1
2626,9.147537,0.091171265,1.6658477999999999,1
2627,9.088882,0.11392212,1.6275482,1
2628,9.038605,0.12709045,1.6287383999999998,1
2629,9.127182000000001,0.13546753,1.6586609,1
2630,9.178664999999999,0.1330719,1.6526793999999998,1
2631,9.096069,0.15461731,1.5748749,1
2632,9.080505,0.16059875,1.5964203000000001,1
2633,9.110428,0.16778564,1.631134,1
2634,9.094864,0.16059875,1.6849976000000002,1
2635,9.0577545,0.1510315,1.6634521,1
2636,9.029022,0.14503479,1.6634521,1
2637,9.090073,0.1797638,1.6514893,1
2638,9.130783000000001,0.14863586,1.6646576000000002,1
2639,9.149933,0.15940857,1.5868378,1
2640,9.105637,0.17376709,1.6059875,1
2641,9.072113,0.13546753,1.6024017,1
2642,9.070922999999999,0.14624023,1.6299438,1
2643,9.134369,0.13665771,1.6251526,1
2644,9.093674,0.12588501,1.5748749,1
2645,9.050568,0.15820313,1.6059875,1
2646,9.088882,0.11392212,1.6000061,1
2647,9.109222,0.12348938,1.5880432,1
2648,9.0733185,0.14263916,1.6454925999999999,1
2649,9.087677000000001,0.12948608,1.6419066999999998,1
2650,9.072113,0.11869812,1.5892334,1
2651,9.09845,0.11869812,1.6036072000000001,1
2652,9.105637,0.13546753,1.6083832,1
2653,9.124786,0.10913086,1.6036072000000001,1
2654,9.094864,0.13546753,1.5952148000000002,1
2655,9.084091,0.1905365,1.6347198,1
2656,9.082901,0.18814087,1.6526793999999998,1
2657,9.081696,0.18334961,1.6754303,1
2658,9.070922999999999,0.18574524,1.6658477999999999,1
2659,9.092467999999998,0.17736816,1.686203,1
2660,9.142746,0.18095398,1.6059875,1
2661,9.068527,0.17736816,1.5976105,1
2662,9.023041000000001,0.16419983,1.6047973999999998,1
2663,9.081696,0.15701294,1.6754303,1
2664,9.181061,0.14503479,1.6514893,1
2665,9.070922999999999,0.18214417,1.5712738000000002,1
2666,9.052963,0.16897583,1.5652924,1
2667,9.058945,0.12588501,1.6012115,1
2668,9.108032000000001,0.12709045,1.6526793999999998,1
2669,9.108032000000001,0.14263916,1.6502838,1
2670,9.0793,0.11869812,1.6454925999999999,1
2671,9.0793,0.14982605,1.7053528000000002,1
2672,9.037399,0.17855835,1.6742249,1
2673,9.092467999999998,0.15940857,1.6897887999999999,1
2674,9.088882,0.14384460000000002,1.6562805,1
2675,9.096069,0.15940857,1.6502838,1
2676,9.090073,0.18095398,1.6945801,1
2677,9.130783000000001,0.18814087,1.6873932,1
2678,9.0972595,0.1510315,1.6646576000000002,1
2679,9.06134,0.14863586,1.686203,1
2680,9.066132000000001,0.19770813,1.7077484,1
2681,9.106842,0.17018127,1.6945801,1
2682,9.096069,0.14743042,1.7125397,1
2683,9.06134,0.14144897,1.7185211,1
2684,9.084091,0.15222168,1.6730346999999999,1
2685,9.099655,0.110321045,1.6885986000000002,1
2686,9.062546000000001,0.14982605,1.6802216,1
2687,9.066132000000001,0.1725769,1.6610565,1
2688,9.088882,0.15580750000000002,1.6718292000000001,1
2689,9.085281,0.16419983,1.6454925999999999,1
2690,9.081696,0.1845398,1.6790161,1
2691,9.099655,0.1905365,1.6598663,1
2692,9.068527,0.15222168,1.6790161,1
2693,9.064941000000001,0.20848083,1.6634521,1
2694,9.088882,0.19172668,1.670639,1
2695,9.084091,0.15342712,1.6275482,1
2696,9.07811,0.1797638,1.6694488999999997,1
2697,9.049377,0.17376709,1.6682433999999997,1
2698,9.09845,0.17736816,1.6814116999999997,1
2699,9.145142,0.14263916,1.6586609,1
2700,9.09845,0.1330719,1.6335297,1
2701,8.991913,0.15940857,1.6682433999999997,1
2702,9.0972595,0.18693542,1.6933898999999997,1
2703,9.155914,0.16778564,1.6694488999999997,1
2704,9.051772999999999,0.14863586,1.5976105,1
2705,9.037399,0.14743042,1.6359253,1
2706,9.090073,0.18095398,1.7017669999999998,1
2707,9.125992,0.13067627,1.7161255000000002,1
2708,9.092467999999998,0.15580750000000002,1.7113342,1
2709,9.066132000000001,0.13905334,1.7197266,1
2710,9.054169,0.15701294,1.7029572,1
2711,9.076903999999999,0.16059875,1.6838074,1
2712,9.09845,0.14384460000000002,1.662262,1
2713,9.093674,0.18933105,1.6909942999999998,1
2714,9.1128235,0.16778564,1.6730346999999999,1
2715,9.06134,0.16059875,1.7316895,1
2716,9.110428,0.13786316,1.7448578000000001,1
2717,9.096069,0.13786316,1.6778258999999998,1
2718,9.045776,0.19293213,1.7041626,1
2719,9.091277999999999,0.1510315,1.7340851000000002,1
2720,9.0733185,0.1618042,1.7089386000000002,1
2721,9.088882,0.18214417,1.6790161,1
2722,9.056564,0.16659546,1.7113342,1
2723,9.070922999999999,0.1905365,1.6826019,1
2724,9.106842,0.1953125,1.6849976000000002,1
2725,9.075714,0.16659546,1.6658477999999999,1
2726,9.0577545,0.16897583,1.6957703000000002,1
2727,9.092467999999998,0.16419983,1.6814116999999997,1
2728,9.104446000000001,0.15461731,1.686203,1
2729,9.091277999999999,0.14025879,1.6682433999999997,1
2730,9.0793,0.15461731,1.6838074,1
2731,9.076903999999999,0.14144897,1.6598663,1
2732,9.080505,0.17137146,1.6969756999999999,1
2733,9.075714,0.16059875,1.7616119,1
2734,9.067337,0.16539001,1.6849976000000002,1
2735,9.062546000000001,0.17616272,1.7053528000000002,1
2736,9.091277999999999,0.16299438,1.7268982,1
2737,9.0733185,0.18334961,1.6826019,1
2738,9.049377,0.16778564,1.7412720000000002,1
2739,9.070922999999999,0.16299438,1.7029572,1
2740,9.135558999999999,0.119903564,1.6634521,1
2741,9.06134,0.15461731,1.6969756999999999,1
2742,8.990723,0.14144897,1.7089386000000002,1
2743,9.07811,0.16059875,1.7281036,1
2744,9.134369,0.11392212,1.7005615,1
2745,9.070922999999999,0.16659546,1.5952148000000002,1
2746,9.041,0.17018127,1.6191559,1
2747,9.080505,0.122299194,1.7113342,1
2748,9.141556,0.12348938,1.7185211,1
2749,9.075714,0.17497253,1.7496490000000002,1
2750,9.074508999999999,0.17616272,1.7125397,1
2751,9.046982,0.15342712,1.7029572,1
2752,9.090073,0.15701294,1.7065582,1
2753,9.105637,0.13665771,1.6730346999999999,1
2754,9.058945,0.13665771,1.6610565,1
2755,9.055359,0.17376709,1.7209167,1
2756,9.058945,0.19293213,1.7137299,1
2757,9.096069,0.16059875,1.7149352999999998,1
2758,9.111618,0.14863586,1.6849976000000002,1
2759,9.082901,0.17376709,1.7005615,1
2760,9.039795,0.1725769,1.6670532,1
2761,9.0733185,0.17376709,1.7161255000000002,1
2762,9.128387,0.17616272,1.6826019,1
2763,9.106842,0.15701294,1.6263428,1
2764,9.06015,0.17137146,1.646698,1
2765,9.0793,0.19891357,1.662262,1
2766,9.058945,0.18693542,1.6359253,1
2767,9.072113,0.19172668,1.5928345,1
2768,9.076903999999999,0.17018127,1.6287383999999998,1
2769,9.093674,0.16659546,1.6371155000000002,1
2770,9.091277999999999,0.17018127,1.6155701,1
2771,9.088882,0.17736816,1.6239471,1
2772,9.091277999999999,0.15701294,1.6239471,1
2773,9.106842,0.1797638,1.6538848999999998,1
2774,9.094864,0.17018127,1.6215515,1
2775,9.087677000000001,0.16897583,1.6251526,1
2776,9.121201,0.16299438,1.6143798999999999,1
2777,9.103241,0.15701294,1.6263428,1
2778,9.090073,0.16659546,1.6359253,1
2779,9.072113,0.14025879,1.5988159,1
2780,9.072113,0.16659546,1.622757,1
2781,9.134369,0.14503479,1.5892334,1
2782,9.142746,0.15342712,1.5628966999999998,1
2783,9.012267999999999,0.14743042,1.5652924,1
2784,9.044586,0.17855835,1.6024017,1
2785,9.124786,0.15820313,1.6203613000000001,1
2786,9.143951,0.16419983,1.543747,1
2787,9.066132000000001,0.20968628,1.528183,1
2788,9.115219,0.14982605,1.5772705,1
2789,9.088882,0.119903564,1.6095886000000001,1
2790,9.102051,0.13426208,1.5593108999999998,1
2791,9.055359,0.16419983,1.5581055,1
2792,9.0733185,0.16299438,1.5605011,1
2793,9.109222,0.13786316,1.5641022,1
2794,9.146347,0.17855835,1.5688782,1
2795,9.123596000000001,0.18214417,1.5605011,1
2796,9.086487,0.1905365,1.5700836,1
2797,9.06134,0.16299438,1.6131744,1
2798,9.117614999999999,0.1797638,1.6490936,1
2799,9.094864,0.15940857,1.6502838,1
2800,9.1128235,0.16539001,1.6131744,1
2801,9.056564,0.18693542,1.6059875,1
2802,9.0733185,0.1905365,1.6574706999999997,1
2803,9.104446000000001,0.17616272,1.6275482,1
2804,9.085281,0.16539001,1.6969756999999999,1
2805,9.067337,0.17018127,1.6909942999999998,1
2806,9.085281,0.17855835,1.6981659,1
2807,9.090073,0.16897583,1.6718292000000001,1
2808,9.064941000000001,0.16778564,1.6586609,1
2809,9.080505,0.20848083,1.6814116999999997,1
2810,9.088882,0.13186646,1.6526793999999998,1
2811,9.082901,0.13546753,1.662262,1
2812,9.081696,0.16419983,1.6814116999999997,1
2813,9.102051,0.1797638,1.646698,1
2814,9.088882,0.15461731,1.7268982,1
2815,9.081696,0.15222168,1.6718292000000001,1
2816,9.1128235,0.1618042,1.6502838,1
2817,9.085281,0.17018127,1.6754303,1
2818,9.090073,0.17137146,1.6754303,1
2819,9.074508999999999,0.18334961,1.6873932,1
2820,9.036209,0.1953125,1.7017669999999998,1
2821,9.106842,0.2132721,1.7125397,1
2822,9.148727000000001,0.16059875,1.6754303,1
2823,9.069733,0.15940857,1.6562805,1
2824,9.056564,0.16419983,1.6933898999999997,1
2825,9.111618,0.14982605,1.6957703000000002,1
2826,9.155914,0.18693542,1.6682433999999997,1
2827,9.074508999999999,0.17855835,1.6012115,1
2828,9.015854,0.18214417,1.6383208999999999,1
2829,9.0733185,0.15461731,1.6981659,1
2830,9.0972595,0.15820313,1.7197266,1
2831,9.106842,0.16778564,1.7316895,1
2832,9.037399,0.1905365,1.7053528000000002,1
2833,9.063736,0.18334961,1.7233124,1
2834,9.080505,0.14503479,1.6658477999999999,1
2835,9.106842,0.16659546,1.7041626,1
2836,9.090073,0.17855835,1.6873932,1
2837,9.080505,0.13665771,1.6909942999999998,1
2838,9.07811,0.19412231,1.7400665000000002,1
2839,9.090073,0.17736816,1.7328949,1
2840,9.092467999999998,0.1510315,1.7292938000000002,1
2841,9.074508999999999,0.13786316,1.6790161,1
2842,9.049377,0.14743042,1.7137299,1
2843,9.064941000000001,0.17616272,1.7388762999999998,1
2844,9.052963,0.1510315,1.7508392,1
2845,9.080505,0.14025879,1.7412720000000002,1
2846,9.070922999999999,0.13426208,1.7017669999999998,1
2847,9.110428,0.18933105,1.7352753,1
2848,9.084091,0.15222168,1.7113342,1
2849,9.032608,0.15342712,1.6849976000000002,1
2850,9.054169,0.14384460000000002,1.6993713,1
2851,9.087677000000001,0.15342712,1.7137299,1
2852,9.063736,0.17855835,1.7017669999999998,1
