,AccX[m/s^2],AccY[m/s^2],AccZ[m/s^2],label
0,9.137955,-0.78630066,-0.9474181999999999,1
1,9.137955,-0.78630066,-0.9474181999999999,1
2,9.347458,-0.9060210999999999,-1.0048828,1
3,9.240905999999999,-0.9215698,-1.0479736,1
4,9.49469,-0.76594543,-0.96777344,1
5,9.457581,-0.5253296,-1.2299347,1
6,9.220566,-0.9359436,-1.124588,1
7,9.299576,-0.79707336,-1.0635376,1
8,8.976349,-0.83418274,-0.75109863,1
9,9.164291,-0.8581238000000001,-0.8576355,1
10,9.328292999999999,-0.74679565,-0.93785095,1
11,9.367797999999999,-0.6713866999999999,-0.93904114,1
12,9.443222,-0.7084961,-0.89953613,1
13,9.438431,-1.1226958999999999,-0.7187805,1
14,9.331894,-1.1885223,-0.55955505,1
15,8.756088,-1.3046417,-0.65652466,1
16,8.308365,-1.0376892,-0.46858215,1
17,10.423645,-1.1274719,-0.14176941,1
18,9.058945,-1.186142,-0.7570800999999999,1
19,9.147537,-0.9874115,-0.32493590000000006,1
20,9.333084,-1.2292328000000001,-0.30097959999999996,1
21,9.091277999999999,-0.9335479999999999,-0.25309753,1
22,9.0577545,-1.111908,-0.30337524,1
23,9.3546295,-1.1526184,-0.28781128,1
24,9.301956,-1.1274719,-0.31295776,1
25,9.374985,-1.0843811,-0.31893920000000003,1
26,9.360626,-1.1885223,-0.09388733,1
27,8.977554,-1.4243622,-0.17170715,1
28,9.082901,-1.1574096999999999,-0.24472046,1
29,9.534195,-1.1023406999999998,-0.1381836,1
30,9.291183,-1.1203003,-0.34048462,1
31,9.373795,-1.1179047,-0.25309753,1
32,9.341461,-1.1203003,-0.24353027,1
33,9.049377,-1.2591553,-0.11903381,1
34,9.068527,-1.3070374,-0.016082764,1
35,9.476746,-1.2160645,-0.087905884,1
36,9.23732,-1.388443,-0.32731628,1
37,9.311539,-1.3357697,0.053359985,1
38,9.533005000000001,1.4283295,-0.5978699000000001,1
39,9.548569,-1.1370544,-0.030441284,1
40,9.477936,-2.0743866,-0.54759216,1
41,9.49231,-2.360489,0.30833435,1
42,9.440826,-2.1773376,0.44122314,1
43,9.049377,-1.451889,0.1539154,1
44,9.274429,-1.2244415000000002,0.079696655,1
45,9.118805,-1.0352936,0.39453125,1
46,8.412521,-0.9550934000000001,0.44960022,1
47,8.289214999999999,-0.73243713,0.18504333,1
48,9.23732,-0.9155884,0.24130249,1
49,10.045364,-1.6110992,-0.01008606,1
50,8.703415,-0.51216125,-0.44224548,1
51,9.522232,-1.7080688000000002,-0.15014648,1
52,8.547791,-1.5548401,-0.45062256,1
53,10.013046000000001,-1.7332153000000001,0.13237000000000002,1
54,9.21936,-1.2411957,0.29756165,1
55,9.564133,-1.2471923999999999,-0.28182983,1
56,8.966782,-1.0269165,0.27841187,1
57,9.080505,-1.2400055,0.24369812,1
58,9.205002,-1.4423218,0.19940186,1
59,9.103241,-1.151413,0.24488829999999998,1
60,8.786011,-1.1322632,0.03540039,1
61,9.397736,-1.4961853,0.49987793,1
62,9.69342,-1.0724182,0.9822998,1
63,9.768829,-1.2124786,-0.27703857,1
64,9.091277999999999,-1.3764801000000002,-0.2566986,1
65,8.481949,-0.50857544,0.49029540000000005,1
66,8.371811,-0.70610046,-0.05198669400000001,1
67,9.0577545,-0.7707366999999999,-0.044799805,1
68,8.946425999999999,-1.0329131999999999,0.6890106,1
69,8.551376,-0.89164734,0.39093018,1
70,9.695816,-1.6410369999999999,0.21138,1
71,9.682648,-1.1729736000000002,0.07250976599999999,1
72,9.895721,-2.1713562,-0.25190735,1
73,6.489975,0.021743774,0.09526062,1
74,8.077332,-1.1681823999999998,1.3438263000000001,1
75,9.63237,-1.1502228,0.13237000000000002,1
76,9.621582,-1.4842072,0.28918457,1
77,8.297592,-2.20607,0.76322937,1
78,7.2597046,-1.0329131999999999,-0.64456177,1
79,8.213791,-1.764328,-1.4490051000000002,1
80,12.336609,-4.334503,-0.28182983,1
81,8.270064999999999,-2.143814,3.6350860000000003,1
82,7.659546000000001,-2.119873,0.96435547,1
83,7.749328599999999,-2.2084656000000003,-1.1365662,1
84,9.281616,-2.2647247000000004,-1.2263488999999999,1
85,8.829102,-2.7842712000000005,-1.0096741,1
86,10.760025,-2.9231262000000005,-0.7786255,1
87,7.5398254,-2.4179535,-0.030441284,1
88,7.4835663,-2.3485259999999997,-3.4661254999999995,1
89,7.854675299999999,-2.9111632999999997,-4.3675385,1
90,8.10965,-2.5723724,-2.8855286,1
91,8.76207,-2.439499,-1.0934601000000002,1
92,11.868546,-4.0077057,-11.185027999999999,1
93,9.711364999999999,-3.3732452000000004,-5.860321,1
94,11.480682,-2.7232056,-3.7857513,1
95,12.665817,-4.6565247,-2.2007904,1
96,6.8562927,-2.0695953,0.07250976599999999,1
97,6.3535004,-2.653778,-0.32493590000000006,1
98,9.268448,-3.0512238,-1.9254456000000002,1
99,7.002334599999999,-2.5364685000000002,-1.0395966,1
100,4.884659,-2.7220154,-0.044799805,1
101,8.586089999999999,-2.5053406000000003,-1.5423737,1
102,10.223724,-3.3325348,-1.2466888,1
103,11.417236,-4.286621,-0.68167114,1
104,8.876999,-2.9590454,-2.5659027,1
105,10.566101,-4.2040253,-4.745819,1
106,8.258087,-0.8174286000000001,-2.1696625,1
107,10.20578,-2.8058167000000003,1.1020203000000002,1
108,8.88298,-2.103119,-1.4107056,1
109,8.58371,-1.9259491000000002,-2.0104523000000003,1
110,10.009445,-3.2331847999999996,-1.3759766000000002,1
111,4.717071499999999,-2.0025635,1.3905181999999998,1
112,7.3626556,-2.5855408,0.6926116999999999,1
113,7.6655273,-3.3744354,1.2779846000000001,1
114,8.728546000000001,-2.7782744999999998,-0.5392151,1
115,9.602432,-2.4287262000000003,0.137146,1
116,8.557373,-2.3305664,-0.15614319,1
117,9.084091,-2.5220947,-0.32852173,1
118,9.187042,-2.408371,-0.22198486,1
119,8.976349,-2.3066254,-0.2111969,1
120,9.012267999999999,-2.4299164,-0.32493590000000006,1
121,9.0733185,-2.4730225,-0.28901672,1
122,9.12001,-2.479004,-0.2064209,1
123,9.008666999999999,-2.4143677,-0.17050171,1
124,8.899734500000001,-2.435913,-0.13697815,1
125,8.90213,-2.4191437000000002,-0.14416504,1
126,8.935654,-2.4335175,-0.12261963,1
127,9.031417999999999,-2.5328673999999998,-0.073532104,1
128,9.069733,-2.6430054,-0.12980652,1
129,9.121201,-2.7196198,-0.09030151,1
130,9.155914,-2.7100372000000004,-0.05198669400000001,1
131,9.076903999999999,-2.6082916000000003,-0.05796814,1
132,9.052963,-2.6071014,-0.121414185,1
133,9.127182000000001,-2.692093,-0.09986877400000001,1
134,9.155914,-2.5544279999999997,-0.073532104,1
135,8.944030999999999,-2.3592987,-0.22436523,1
136,8.88298,-2.2731017999999996,-0.2351532,1
137,9.046982,-2.3616943,-0.21598816,1
138,9.165497,-2.5400543,-0.11424255,1
139,9.088882,-2.5125275,-0.19085693,1
140,9.163101,-2.5699767999999996,-0.12860107,1
141,9.051772999999999,-2.3988037,-0.054382324,1
142,9.115219,-2.372467,-0.159729,1
143,9.195419000000001,-2.1988830000000004,-0.09867859,1
144,9.142746,-2.2395782000000004,-0.10705566400000001,1
145,9.019455,-2.1665650000000003,-0.09628296,1
146,9.003891000000001,-2.1677551,-0.044799805,1
147,8.933258,-2.0001678,0.036590576,1
148,8.976349,-1.9199523999999997,0.08328247,1
149,9.00029,-1.9941711,0.024627686,1
150,9.110428,-2.0684052,0.19102478,1
151,9.17627,-2.2862701000000003,0.28320313,1
152,9.157119999999999,-2.377243,0.3131256,1
153,9.033813,-2.3473206,0.27243042,1
154,8.972763,-2.3114166000000003,0.14074707,1
155,8.965575999999999,-2.2563477,0.10722351,1
156,9.06015,-2.3652802000000004,0.096450806,1
157,9.333084,-2.5460358,-0.012481688999999999,1
158,9.331894,-2.2240142999999994,0.022232056,1
159,9.543777,-2.261139,-0.04840088,1
160,9.29837,-2.1210785,-0.029251099,1
161,9.00029,-2.2348022000000003,-0.08670044,1
162,8.744110000000001,-2.3233794999999997,0.23890686,1
163,8.703415,-2.3545074,0.086868286,1
164,8.849457000000001,-2.447876,-0.014877318999999998,1
165,8.912903,-2.5065307999999997,0.08567810000000001,1
166,9.293579,-2.5532227,0.34304809999999997,1
167,9.505478,-2.5604095,0.16947937,1
168,8.905716,-2.6633606,0.09405517599999999,1
169,8.887772,-2.5771637000000003,0.113204956,1
170,8.991913,-2.5005493,0.12518310000000002,1
171,9.143951,-2.3401337000000004,-0.20281982,1
172,9.401321000000001,-2.3545074,-0.28662109999999996,1
173,9.616806,-2.5556183,0.18144226,1
174,9.355835,-2.6358185,0.38494873,1
175,9.088882,-2.447876,0.04736328,1
176,8.610046,-2.502945,0.16947937,1
177,8.315552,-2.7926482999999998,0.33587646,1
178,8.7812195,-2.5867462000000003,-0.29141235,1
179,8.934448,-3.0559998,-0.14656067,1
180,9.425262,-2.9949493,0.5968323,1
181,9.516250999999999,-2.8417206000000004,0.12997437,1
182,9.591660000000001,-2.9087677000000003,0.060531615999999996,1
183,8.818328999999999,-3.2439575,-0.05198669400000001,1
184,8.829102,-2.7854614,-0.16691589999999998,1
185,8.680664,-2.5939330000000003,-0.21240234,1
186,8.697433,-2.38443,-0.2973938,1
187,8.654327,-2.1677551,-0.15733337,1
188,8.551376,-2.032486,0.14553833,1
189,8.582504,-2.0935363999999996,0.067718506,1
190,8.489136,-2.143814,-0.14416504,1
191,9.063736,-2.526886,-0.3871765,1
192,9.213379,-2.8967896,-0.38838196,1
193,9.480331,-3.5887146,0.27243042,1
194,9.203796,-3.4582367,0.09764099,1
195,8.592087,-2.9865722999999997,-0.25549316,1
196,8.847061,-2.930313,-0.037628174,1
197,8.656723,-2.5628052,0.32389832,1
198,8.620819000000001,-2.0612183,0.1431427,1
199,9.629974,-2.7818756000000002,0.2341156,1
200,8.375411999999999,-2.4107666,-0.25909424,1
201,8.207809,-1.6649779999999998,-0.159729,1
202,8.115631,-1.5321045,-0.28781128,1
203,7.8606567,-1.3764801000000002,-0.5224457,1
204,7.67749,-1.2376098999999998,-1.0599518,1
205,7.435683999999999,-1.2112732,-1.2071991000000002,1
206,7.5051117,-1.2244415000000002,-1.0539703,1
207,8.234146,-1.234024,-0.90312195,1
208,8.07373,-1.6769409,0.923645,1
209,7.9779663,-1.3609161,-1.1868439,1
210,8.807556,-1.2400055,-1.9541779,1
211,9.351044,-1.2819061,-0.76426697,1
212,9.825104,-1.5991364,-0.35365295,1
213,9.960372999999999,-0.80067444,-1.871582,1
214,10.1961975,-0.8497466999999999,-2.1373444,1
215,9.552155,-1.4387207,-1.3795776000000002,1
216,11.587234500000001,-0.88446045,-5.1552277,1
217,9.750869999999999,-0.799469,-0.50927734,1
218,9.629974,-1.4937897,-1.3149261,1
219,8.746506,-0.95150757,-1.8033447,1
220,7.700241,-1.0017853,-1.5016785,1
221,8.788406,-1.1693726,-1.1341705,1
222,7.946838400000001,-1.2196503,-1.0934601000000002,1
223,7.4165344,-0.72406006,-2.642517,1
224,7.332733,-0.7623595999999999,-1.258667,1
225,9.501877,-1.190918,-0.89953613,1
226,9.437241,-1.6302643,-1.6034393,1
227,10.136337,-0.7216644,-2.3755646,1
228,8.222183,-0.6438446,-0.71398926,1
229,7.0490265,-1.3417511,-0.63856506,1
230,7.118453999999999,-0.6127166999999999,-2.1660767000000005,1
231,9.062546000000001,0.38565063,-3.4625244,1
232,9.063736,0.3509369,-2.0942383,1
233,9.267242,-1.7930602999999998,-1.5399933000000001,1
234,9.330688,-1.5285034,-1.784195,1
235,7.9815674,-0.25598145,-1.7411041,1
236,9.215775,-0.67855835,-1.9541779,1
237,8.910507,0.6250763,-2.342041,1
238,7.9803619999999995,0.04208374,-4.517181400000001,1
239,8.586089999999999,0.08039856,-0.417099,1
240,9.070922999999999,-0.09197998,-0.69244385,1
241,9.792769999999999,-0.14944458,-0.9079132,1
242,10.027405,-0.3481598,-0.48054504,1
243,10.754044,-0.7886963,0.13356018,1
244,12.979462,-1.0173492,0.11920166,1
245,12.689758,-1.1095276,-1.124588,1
246,12.878906,-0.739624,-3.1740265,1
247,12.076842999999998,-2.3533020000000002,-0.0005187988,1
248,10.497864,-2.0384674,0.33827209999999996,1
249,9.327103,-1.7894744999999999,1.6323242,1
250,8.942825,-2.009735,1.291153,1
251,8.735733,-1.5045624,1.473114,1
252,9.418076,-1.5823822,2.1446838,1
253,9.406113000000001,-0.95150757,1.8011169999999999,1
254,9.0793,-0.7384185999999999,1.9124603,1
255,8.410126,-0.7695465,1.7364807,1
256,9.175064,-1.1083221,2.2859497,1
257,9.37738,-0.4379425,0.67225647,1
258,10.420059,-1.0113524999999999,3.058075,1
259,9.781998,-0.1590271,1.0780792,1
260,9.625183,-0.2607727,1.8382262999999999,1
261,8.993117999999999,-0.6067352,2.6905669999999997,1
262,9.224152,-0.35653687,2.6019897000000003,1
263,9.251678,-0.55526733,2.6570435000000003,1
264,9.421677,-0.5756073,2.8904877,1
265,9.244507,-0.30148315,2.6642303,1
266,8.896149000000001,-0.112335205,2.5062103,1
267,8.950012,-0.3074646,3.0149841,1
268,8.859039,-0.33978270000000005,2.9132233,1
269,8.768051,0.17376709,1.3629761,1
270,8.611237,-0.2212677,2.321869,1
271,8.807556,0.5341034,1.9890747,1
272,9.051772999999999,-0.81144714,3.5812072999999995,1
273,9.481522,-0.40682983,0.33946228,1
274,9.776016,-1.0879669,1.9914551,1
275,9.755661,-1.4399261,3.1837769000000002,1
276,8.684265,-0.58399963,2.6702117999999997,1
277,8.666306,-0.71447754,3.224472,1
278,8.489136,-0.32781982,2.7300720000000003,1
279,8.546585,-0.32063293,3.1813812,1
280,8.271255499999999,-0.26675415,4.0289307,1
281,9.341461,-0.52293396,3.3058777000000004,1
282,8.734542999999999,0.25398254,2.963501,1
283,8.164719,-0.9934082000000001,4.186950700000001,1
284,8.623199000000001,1.5588226,2.697754,1
285,8.801575,0.45509338,3.326233,1
286,9.427658000000001,0.38446045,2.7420502,1
287,8.378998,-0.31942750000000003,3.9116058,1
288,7.986343400000001,0.43115234,5.824585,1
289,8.127609,0.22045898,4.4467163,1
290,7.864242599999999,0.59754944,0.72972107,1
291,8.912903,0.85491943,3.8074646,1
292,7.4249115,1.406784,3.3956604,1
293,7.8510740000000006,1.5731812,2.7324677000000004,1
294,4.8954315,0.7531738,12.108153999999999,1
295,7.063385,-1.2771149,7.4861603,1
296,6.773681599999999,-0.6833496,5.8293610000000005,1
297,7.7577057,-0.87368774,4.908798,1
298,8.396957,-0.7108916999999999,4.2575684,1
299,8.598068,-0.46548462,4.610718,1
300,8.292800999999999,-0.30986023,4.6598053,1
301,8.183867999999999,-0.39485168,4.3258057,1
302,8.462799,-0.48942566,4.3569336,1
303,8.453217,-0.47865295,4.2851105,1
304,8.2317505,-0.7108916999999999,4.355728,1
305,7.958816499999999,-0.8988341999999999,4.4275665,1
306,7.937271000000001,-0.92277527,4.392853,1
307,7.906142999999999,-0.8377838,4.5652313,1
308,7.9707794000000005,-0.7108916999999999,4.732818599999999,1
309,8.003113,-0.60913086,4.872879,1
310,7.91333,-0.33259583,5.176941,1
311,7.83432,-0.32182312,5.2571564,1
312,7.663131699999999,-0.34576416,5.355316,1
313,7.454834,-0.3146515,5.5396730000000005,1
314,7.253723,-0.43196106,5.339752,1
315,7.355484,-0.52653503,5.336166400000001,1
316,7.5434265,-0.22247314,5.540863,1
317,7.5386353,0.05645752,5.7683105,1
318,7.5374300000000005,0.06842041,6.12146,1
319,7.4284973,-0.030929565,6.339325,1
320,7.277664,-0.29548645,6.37764,1
321,7.051407000000001,-0.15542603,6.3728485,1
322,6.640808,0.17376709,6.4722137,1
323,6.4373016,0.51135254,6.6421967,1
324,6.489975,0.5197295999999999,6.733185000000001,1
325,6.6946716,0.3497467,6.390808,1
326,6.998733500000001,-0.12310791,6.561996499999999,1
327,7.008316000000001,-0.54089355,6.4997406,1
328,7.0095215,-0.7013092,6.5141144,1
329,6.8790283,-0.5528717,6.43869,1
330,6.630035400000001,-0.42477417,6.3536987,1
331,6.7174225000000005,-0.08241272,6.3058167,1
332,6.9939575,0.13665771,6.4159393,1
333,7.047821000000001,0.122299194,6.2387695,1
334,7.015503,0.13426208,6.3884125,1
335,6.937683,0.0181427,6.466216999999999,1
336,7.022689999999999,0.098358154,6.1190643,1
337,6.752136,-0.050079346,6.4554443,1
338,6.6432037,0.06602478,6.6015015,1
339,6.738967999999999,0.09596252400000001,6.500946,1
340,6.965225,0.3282013,6.561996499999999,1
341,6.7641144,0.4359436,6.3848267,1
342,6.493561,0.54248047,6.667342999999999,1
343,6.4456787,0.5520477,6.5559997999999995,1
344,6.9149475,0.43952942,6.589523299999999,1
345,6.703064,0.15222168,6.4554443,1
346,6.296036,0.107925415,7.034851,1
347,6.2864685,0.24320984,7.038436999999999,1
348,6.8239594,0.34495544,6.583542,1
349,6.394211,0.13905334,6.7846527000000005,1
350,6.205063,0.2515869,7.010910000000001,1
351,6.849106,0.07081604,6.669739,1
352,6.8239594,-0.030929565,6.2088470000000004,1
353,6.050644,0.06602478,6.977386500000001,1
354,6.1033173,0.31861877,7.2024384,1
355,6.3966064000000005,0.45509338,6.825348,1
356,6.5246887000000005,0.4766388,6.7954254,1
357,6.809601,0.28988647,6.461441000000001,1
358,6.2433777,0.10314941400000001,6.9378815000000005,1
359,6.021911599999999,0.2803192,7.3532715,1
360,6.1009215999999995,0.17137146,7.177307000000001,1
361,5.8914184999999994,0.05645752,7.1006927,1
362,6.082962,-0.014175415,7.133011,1
363,6.3139954000000005,0.038497925,7.070755,1
364,6.3511047,0.026535034,7.065979,1
365,6.2206269999999995,0.052871704000000005,7.173706,1
366,6.03627,0.20610046,7.201248,1
367,6.0063477,0.4287567,7.213211,1
368,6.0063477,0.54367065,7.141388,1
369,6.1092987,0.5664215,7.0420226999999995,1
370,6.138031,0.45988464,7.064773599999999,1
371,6.200271599999999,0.31263733,7.094696000000001,1
372,6.256546,0.23242188,7.148575,1
373,6.2589264,0.105529785,7.10907,1
374,6.200271599999999,0.08998108,7.1689300000000005,1
375,6.078171,0.15701294,7.216811999999999,1
376,5.960861,0.13186646,7.2323759999999995,1
377,5.971634,0.15820313,7.2551117,1
378,5.981201,0.16778564,7.240753,1
379,6.038666,0.18214417,7.237152,1
380,6.03627,0.20010376,7.225189,1
381,5.9979705999999995,0.2348175,7.275467,1
382,5.901001,0.33657837,7.2922210000000005,1
383,5.902191,0.3222046,7.263489,1
384,5.971634,0.38087463,7.256317,1
385,6.070983999999999,0.37727356,7.186874400000001,1
386,6.1715393,0.3796692,7.204834,1
387,6.1799316,0.34255979999999997,7.1246339999999995,1
388,6.1715393,0.25875854,7.1820984,1
389,6.1080933,0.25875854,7.2778625,1
390,5.9895781999999995,0.18933105,7.2874300000000005,1
391,5.922546400000001,0.1905365,7.282653999999999,1
392,6.0063477,0.16419983,7.243149000000001,1
393,5.9931792999999995,0.20370483,7.2455444,1
394,5.985992400000001,0.2922821,7.2180023,1
395,5.9189606,0.34016418,7.244339,1
396,5.9153595,0.30665588,7.263489,1
397,5.932129,0.27911377,7.273071300000001,1
398,5.999161,0.20249939,7.326935000000001,1
399,6.0099335,0.22164917,7.262298599999999,1
400,6.0518339999999995,0.25038147,7.213211,1
401,6.0805664,0.2348175,7.256317,1
402,6.0458527,0.20130920000000002,7.3580627000000005,1
403,6.020706,0.1905365,7.359267999999999,1
404,5.886627,0.24559021,7.291030999999999,1
405,5.8243865999999995,0.27432249999999997,7.299408000000001,1
406,5.8148040000000005,0.27552795,7.338913000000001,1
407,5.8746643,0.30305479999999996,7.3496857,1
408,5.8962097,0.30305479999999996,7.302994,1
409,5.9620514,0.32939148,7.2814483999999995,1
410,5.909378,0.33418274,7.326935000000001,1
411,5.970428500000001,0.30903625,7.3053894,1
412,5.981201,0.27911377,7.2551117,1
413,6.020706,0.2192688,7.276657000000001,1
414,6.020706,0.16659546,7.2814483999999995,1
415,6.038666,0.18334961,7.338913000000001,1
416,6.0266876,0.23123169,7.2886353,1
417,5.9464874000000005,0.26235962,7.323349,1
418,5.8986053,0.25637817,7.362854,1
419,5.8519135,0.2300415,7.322159,1
420,5.8914184999999994,0.2132721,7.3329315,1
421,5.868683,0.25756836,7.3808136,1
422,5.862686,0.26834106,7.429886,1
423,5.866287000000001,0.20610046,7.4215089999999995,1
424,5.8040314,0.17018127,7.410736,1
425,5.845932,0.17018127,7.3843994,1
426,5.8363495,0.18693542,7.413131699999999,1
427,5.839950599999999,0.16539001,7.4634094,1
428,5.7968445,0.16897583,7.44545,1
429,5.826782,0.13067627,7.451431299999999,1
430,5.8567047,0.22045898,7.4526367,1
431,5.8638916,0.20610046,7.371231,1
432,5.922546400000001,0.26115417,7.382003999999999,1
433,5.912964,0.20489502,7.3891907,1
434,5.924942,0.17855835,7.386794999999999,1
435,5.892624,0.17018127,7.354477,1
436,5.853119,0.19412231,7.362854,1
437,5.853119,0.21687317,7.3808136,1
438,5.8567047,0.21687317,7.3843994,1
439,5.903396599999999,0.20370483,7.373626700000001,1
440,5.881851,0.17497253,7.306595,1
441,5.8722687,0.17137146,7.326935000000001,1
442,5.901001,0.19651794,7.3879850000000005,1
443,5.952469000000001,0.21087646,7.3089905,1
444,5.9943695,0.13426208,7.3089905,1
445,5.9943695,0.11392212,7.316161999999999,1
446,5.933319,0.14025879,7.362854,1
447,5.892624,0.14503479,7.378417999999999,1
448,5.902191,0.15222168,7.3879850000000005,1
449,5.889023,0.15701294,7.342499,1
450,5.902191,0.14863586,7.324539,1
451,5.886627,0.22285461,7.347289999999999,1
452,5.839950599999999,0.22164917,7.373626700000001,1
453,5.7932587,0.23362732,7.385605,1
454,5.808822599999999,0.24919128,7.461014,1
455,5.808822599999999,0.26235962,7.3975677,1
456,5.808822599999999,0.25277710000000003,7.34848,1
457,5.8016357,0.25038147,7.343704,1
458,5.9429016,0.29588318,7.3951720000000005,1
459,6.0865480000000005,0.17018127,7.3556669999999995,1
460,6.038666,0.20489502,7.3377075,1
461,6.0063477,0.18574524,7.364044,1
462,5.958465599999999,0.14144897,7.371231,1
463,5.8854370000000005,0.110321045,7.3700410000000005,1
464,5.8004456,0.093566895,7.4083404999999996,1
465,5.766922,0.08279419,7.456222500000001,1
466,5.7824860000000005,0.12109375,7.4263,1
467,5.8854370000000005,0.17616272,7.338913000000001,1
468,5.9620514,0.21208191,7.3556669999999995,1
469,5.970428500000001,0.24200439999999998,7.3532715,1
470,6.0171204000000005,0.22525024,7.252716,1
471,6.031479,0.19770813,7.2311707,1
472,6.0087433,0.2132721,7.243149000000001,1
473,5.903396599999999,0.2240448,7.334121700000001,1
474,5.860306,0.1797638,7.3963776,1
475,5.820801,0.19770813,7.398772999999999,1
476,5.8004456,0.24919128,7.495727499999999,1
477,5.7717133,0.24200439999999998,7.5148773,1
478,5.723831,0.25517273,7.517272999999999,1
479,5.7214355,0.27792358,7.513686999999999,1
480,5.770523000000001,0.28749084,7.4322815,1
481,5.8148040000000005,0.21208191,7.3843994,1
482,5.806426999999999,0.14743042,7.398772999999999,1
483,5.7298126,0.10194397,7.313766499999999,1
484,5.8902282999999995,0.105529785,7.379608,1
485,5.9500732,0.20610046,7.409546000000001,1
486,5.889023,0.14144897,7.3556669999999995,1
487,5.8974150000000005,0.14743042,7.4155273,1
488,5.909378,0.18574524,7.4286957,1
489,5.8986053,0.22045898,7.411941499999999,1
490,5.845932,0.17616272,7.3676452999999995,1
491,5.8507233,0.1905365,7.390381,1
492,5.8962097,0.1845398,7.4215089999999995,1
493,5.884247,0.19651794,7.4334869999999995,1
494,5.8471375,0.16539001,7.3891907,1
495,5.8806458,0.18574524,7.411941499999999,1
496,5.8974150000000005,0.19770813,7.356872599999999,1
497,5.861496,0.2240448,7.342499,1
498,5.781296,0.18334961,7.405945,1
499,5.7333984000000004,0.18214417,7.42749,1
500,5.7645264,0.16659546,7.4286957,1
501,5.8040314,0.18574524,7.4083404999999996,1
502,5.9512787000000005,0.15342712,7.366439999999999,1
503,5.991974,0.117507935,7.3377075,1
504,6.0147247,0.10913086,7.3365173,1
505,5.941696,0.10314941400000001,7.3461,1
506,5.8962097,0.14144897,7.366439999999999,1
507,5.902191,0.15342712,7.362854,1
508,5.861496,0.1510315,7.362854,1
509,5.818405,0.15940857,7.4239044000000005,1
510,5.751358,0.20848083,7.477767999999999,1
511,5.7489624,0.2132721,7.488556,1
512,5.740585299999999,0.19172668,7.447845500000001,1
513,5.808822599999999,0.18693542,7.3915863,1
514,5.8962097,0.19770813,7.3676452999999995,1
515,5.8710785,0.17497253,7.4526367,1
516,5.6663666,0.20489502,7.4921417,1
517,5.584961,0.20610046,7.569946300000001,1
518,5.584961,0.21208191,7.611847,1
519,5.6531982,0.22525024,7.6333923,1
520,5.691513,0.18214417,7.615448,1
521,5.636444,0.15701294,7.620224,1
522,5.6065062999999995,0.16539001,7.6333923,1
523,5.558624299999999,0.19891357,7.651352,1
524,5.5239105,0.23602295,7.648956299999999,1
525,5.5167236,0.26834106,7.626220699999999,1
526,5.534683,0.28749084,7.625015299999999,1
527,5.5753937,0.28271484,7.6645202999999995,1
528,5.56102,0.2132721,7.738739,1
529,5.515533400000001,0.1845398,7.7303619999999995,1
530,5.4880066,0.16539001,7.7255707,1
531,5.4592743,0.23362732,7.7207794000000005,1
532,5.5059510000000005,0.24679565,7.609451299999999,1
533,5.5430603,0.26594543,7.5675507,1
534,5.600525,0.24440002,7.580719,1
535,5.696289,0.20489502,7.563965,1
536,5.7070620000000005,0.17736816,7.5424194,1
537,5.6496124000000005,0.14982605,7.6728973,1
538,5.545456,0.20848083,7.739944500000001,1
539,5.513138,0.19412231,7.6812744,1
540,5.489197,0.21447754,7.675292999999999,1
541,5.525116000000001,0.26235962,7.626220699999999,1
542,5.5179290000000005,0.24798584,7.6465607,1
543,5.520324700000001,0.2815094,7.692062400000001,1
544,5.533493,0.2635498,7.6453705,1
545,5.5622253,0.25398254,7.627411,1
546,5.590957599999999,0.23960876,7.647766000000001,1
547,5.5741879999999995,0.21687317,7.6058655,1
548,5.4520874,0.15342712,7.579528999999999,1
549,5.334778,0.14144897,7.7351529999999995,1
550,5.2354126,0.1797638,7.8512726,1
551,5.319214,0.18814087,7.880005000000001,1
552,5.2988586,0.21806335,7.8596497,1
553,5.3072357000000006,0.13905334,7.8824005,1
554,5.278503400000001,0.06124878,7.8871765,1
555,5.295273,0.05406189,7.911133,1
556,5.2797089999999995,0.093566895,7.816559,1
557,5.2545624,0.1905365,7.814163000000001,1
558,5.3778687000000005,0.20729065,7.8512726,1
559,5.3563232,0.30903625,7.754303,1
560,5.1647796999999995,0.20130920000000002,7.9207,1
561,5.194717400000001,0.20729065,7.943451,1
562,5.2126617,0.14624023,7.970978,1
563,5.2354126,0.14743042,7.974578999999999,1
564,5.289276,0.16299438,7.8943634000000005,1
565,5.276108,0.15940857,7.8859863,1
566,5.3407593,0.15820313,7.790222,1
567,5.4532776,0.19651794,7.7207794000000005,1
568,5.502365,0.22045898,7.6453705,1
569,5.4784239999999995,0.27552795,7.784225500000001,1
570,5.4101870000000005,0.31143188,7.8189545,1
571,5.431732,0.28630066,7.8285217000000005,1
572,5.3419495,0.21806335,7.8381042,1
573,5.2701263,0.20729065,7.874008,1
574,5.174362,0.14982605,7.878799400000001,1
575,5.1157074,0.18933105,7.874008,1
576,5.142044,0.20968628,7.93985,1
577,5.1803436,0.2803192,7.905136,1
578,5.268936,0.26475525,7.872818,1
579,5.32399,0.27192688,7.869232000000001,1
580,5.3503264999999995,0.2707367,7.872818,1
581,5.368286,0.28509520000000005,7.8405,1
582,5.370682,0.29348755,7.829727,1
583,5.3491364,0.25398254,7.772262599999999,1
584,5.3419495,0.22764587,7.784225500000001,1
585,5.3491364,0.18095398,7.772262599999999,1
586,5.376663,0.16897583,7.833313,1
587,5.361114499999999,0.19651794,7.793808,1
588,5.328780999999999,0.13067627,7.832122999999999,1
589,5.347946,0.14263916,7.7878264999999995,1
590,5.3623047,0.17376709,7.833313,1
591,5.406601,0.1905365,7.8201447,1
592,5.367096,0.16419983,7.784225500000001,1
593,5.375473,0.2192688,7.7950134,1
594,5.376663,0.27192688,7.8189545,1
595,5.3407593,0.21806335,7.8189545,1
596,5.355118,0.25277710000000003,7.8033905,1
597,5.355118,0.22644043,7.7686768,1
598,5.387436,0.2922821,7.7303619999999995,1
599,5.3958281999999995,0.25875854,7.7626800000000005,1
600,5.4137726,0.22045898,7.817749000000001,1
601,5.468841599999999,0.20130920000000002,7.756698599999999,1
602,5.437729,0.19293213,7.7315674,1
603,5.406601,0.2240448,7.7997894,1
604,5.4401093000000005,0.24679565,7.8261259999999995,1
605,5.3958281999999995,0.23242188,7.747116,1
606,5.4006042,0.20010376,7.7375490000000005,1
607,5.430542,0.17137146,7.674103,1
608,5.4449005,0.16778564,7.707611,1
609,5.4461059999999994,0.21447754,7.7291718,1
610,5.4125824,0.26475525,7.7339478,1
611,5.4245605,0.2707367,7.793808,1
612,5.4676514,0.18933105,7.714797999999999,1
613,5.492782599999999,0.13546753,7.7124023,1
614,5.493988,0.052871704000000005,7.7495117,1
615,5.4520874,0.12948608,7.753113000000001,1
616,5.4365234000000004,0.1330719,7.761489999999999,1
617,5.428146400000001,0.19172668,7.707611,1
618,5.4963837,0.18214417,7.653747599999999,1
619,5.525116000000001,0.16419983,7.6776886,1
620,5.552643,0.1725769,7.627411,1
621,5.534683,0.21087646,7.613052400000001,1
622,5.5358887,0.24798584,7.648956299999999,1
623,5.5442656999999995,0.23960876,7.6621246,1
624,5.537079,0.21447754,7.619034,1
625,5.5430603,0.25756836,7.611847,1
626,5.5059510000000005,0.24081421,7.669311500000001,1
627,5.4353333,0.2707367,7.7351529999999995,1
628,5.4449005,0.24200439999999998,7.7303619999999995,1
629,5.455673,0.2635498,7.7447357000000006,1
630,5.486801,0.23123169,7.7052307,1
631,5.501175,0.17616272,7.700439500000001,1
632,5.586166400000001,0.17497253,7.652557400000001,1
633,5.644821,0.1725769,7.579528999999999,1
634,5.5825653,0.14863586,7.579528999999999,1
635,5.616089,0.17137146,7.627411,1
636,5.5885620000000005,0.17616272,7.651352,1
637,5.56102,0.17497253,7.6788940000000006,1
638,5.495178,0.19891357,7.670501700000001,1
639,5.4724426,0.20130920000000002,7.708816499999999,1
640,5.4018097,0.1953125,7.736343400000001,1
641,5.411392,0.20010376,7.7279663,1
642,5.4209595,0.21687317,7.7339478,1
643,5.4245605,0.24200439999999998,7.7351529999999995,1
644,5.450897,0.23123169,7.7447357000000006,1
645,5.510742,0.16419983,7.7124023,1
646,5.5071564,0.19651794,7.6788940000000006,1
647,5.528702,0.20370483,7.652557400000001,1
648,5.5741879999999995,0.22764587,7.626220699999999,1
649,5.5466614000000005,0.23123169,7.6286163,1
650,5.5143433,0.1797638,7.644164999999999,1
651,5.486801,0.14743042,7.6417847000000005,1
652,5.4963837,0.18574524,7.674103,1
653,5.541869999999999,0.21208191,7.6788940000000006,1
654,5.5765839999999995,0.23362732,7.613052400000001,1
655,5.569397,0.23602295,7.614242599999999,1
656,5.5622253,0.26834106,7.647766000000001,1
657,5.4999695,0.24081421,7.6465607,1
658,5.5322876,0.23841858,7.711212,1
659,5.501175,0.21566772,7.675292999999999,1
660,5.5167236,0.22045898,7.683669999999999,1
661,5.5059510000000005,0.19172668,7.670501700000001,1
662,5.438919,0.21806335,7.714797999999999,1
663,5.437729,0.16659546,7.741134599999999,1
664,5.458069,0.16897583,7.627411,1
665,5.5598297,0.2635498,7.623825,1
666,5.540664700000001,0.33299255,7.622619599999999,1
667,5.556228599999999,0.34136963,7.696838400000001,1
668,5.513138,0.35932922,7.766280999999999,1
669,5.470047,0.31982422,7.6896667,1
670,5.4461059999999994,0.29826355,7.6501617,1
671,5.468841599999999,0.22045898,7.6333923,1
672,5.4772186,0.20489502,7.6417847000000005,1
673,5.4748383,0.19412231,7.657333400000001,1
674,5.510742,0.14144897,7.658539,1
675,5.450897,0.088775635,7.696838400000001,1
676,5.438919,0.0049743652,7.7171936,1
677,5.442505000000001,-0.03453064,7.739944500000001,1
678,5.4652557,-0.10635376,7.695647999999999,1
679,5.46167,-0.1015625,7.738739,1
680,5.438919,-0.090789795,7.773452799999999,1
681,5.399414,-0.009384155,7.7626800000000005,1
682,5.3455505,0.10194397,7.808182,1
683,5.319214,0.19172668,7.7830353,1
684,5.391037,0.338974,7.759094,1
685,5.430542,0.378479,7.670501700000001,1
686,5.399414,0.42156982,7.6609343999999995,1
687,5.399414,0.35333252,7.6669160000000005,1
688,5.352722,0.16659546,7.6896667,1
689,5.4125824,0.0181427,7.833313,1
690,5.442505000000001,0.115112305,7.880005000000001,1
691,5.46167,0.2707367,7.900345,1
692,5.38385,0.37010193,7.8392944,1
693,5.3299866,0.41558838,7.7327576,1
694,5.326385500000001,0.48980713,7.7950134,1
695,5.280899,0.5352935999999999,7.8153534,1
696,5.320404,0.4407196,7.8596497,1
697,5.3970184,0.35572815,7.8045807,1
698,5.3491364,0.24679565,7.8452910000000005,1
699,5.2940674,0.22164917,7.8752135999999995,1
700,5.260544,0.18095398,7.924286,1
701,5.2354126,0.18933105,7.9075317,1
702,5.210266000000001,0.17855835,7.8405,1
703,5.2282257,0.14384460000000002,7.8405,1
704,5.2581635,0.15940857,7.7997894,1
705,5.288086,0.1330719,7.8392944,1
706,5.2845,0.10913086,7.884796000000001,1
707,5.265334999999999,0.10433959999999999,7.900345,1
708,5.288086,0.09475708,7.865631,1
709,5.2797089999999995,0.086380005,7.856064,1
710,5.3024445,0.09715271,7.878799400000001,1
711,5.351532,0.23362732,7.884796000000001,1
712,5.361114499999999,0.26115417,7.836899000000001,1
713,5.343155,0.27671814,7.8428955,1
714,5.316818,0.29826355,7.7878264999999995,1
715,5.315613,0.31622314,7.8009949999999995,1
716,5.3407593,0.30426025,7.8153534,1
717,5.3647003,0.338974,7.7650757,1
718,5.399414,0.31503296,7.771057000000001,1
719,5.387436,0.29467773,7.756698599999999,1
720,5.3503264999999995,0.27792358,7.7950134,1
721,5.361114499999999,0.26834106,7.7890167,1
722,5.3467407,0.259964,7.808182,1
723,5.312027,0.22045898,7.812958,1
724,5.3419495,0.22764587,7.814163000000001,1
725,5.3563232,0.22164917,7.832122999999999,1
726,5.375473,0.19770813,7.817749000000001,1
727,5.4137726,0.20370483,7.711212,1
728,5.3623047,0.23841858,7.7830353,1
729,5.3060455,0.19651794,7.7997894,1
730,5.355118,0.20130920000000002,7.8273315000000006,1
731,5.3383636,0.19770813,7.741134599999999,1
732,5.3012543,0.21447754,7.822540299999999,1
733,5.3407593,0.2695465,7.905136,1
734,5.313217,0.30186462,7.901550299999999,1
735,5.3024445,0.27313232,7.805786,1
736,5.314422599999999,0.2922821,7.796203599999999,1
737,5.3419495,0.27671814,7.754303,1
738,5.3383636,0.28988647,7.7626800000000005,1
739,5.358719000000001,0.29588318,7.748321499999999,1
740,5.442505000000001,0.31861877,7.759094,1
741,5.5047607,0.24798584,7.7243805,1
742,5.564621,0.21208191,7.702835,1
743,5.5239105,0.16897583,7.698044,1
744,5.4808197,0.20968628,7.7351529999999995,1
745,5.3958281999999995,0.20848083,7.721985000000001,1
746,5.370682,0.23242188,7.6884613,1
747,5.38385,0.29109192,7.7243805,1
748,5.430542,0.26715088,7.7291718,1
749,5.4532776,0.26235962,7.708816499999999,1
750,5.454483,0.22285461,7.658539,1
751,5.4772186,0.2348175,7.7339478,1
752,5.4963837,0.23841858,7.7040253,1
753,5.456878700000001,0.21208191,7.708816499999999,1
754,5.520324700000001,0.18095398,7.6848755,1
755,5.540664700000001,0.15701294,7.6860657,1
756,5.529892,0.19770813,7.669311500000001,1
757,5.4784239999999995,0.23602295,7.6788940000000006,1
758,5.449692,0.25277710000000003,7.692062400000001,1
759,5.46167,0.26834106,7.7351529999999995,1
760,5.454483,0.25277710000000003,7.6944427,1
761,5.495178,0.2348175,7.723175,1
762,5.5322876,0.22045898,7.695647999999999,1
763,5.5071564,0.2192688,7.611847,1
764,5.5227203000000005,0.20010376,7.665725699999999,1
765,5.605316,0.24320984,7.6417847000000005,1
766,5.605316,0.20848083,7.653747599999999,1
767,5.5227203000000005,0.20489502,7.6848755,1
768,5.5059510000000005,0.23841858,7.68248,1
769,5.5047607,0.22764587,7.696838400000001,1
770,5.5382843,0.27432249999999997,7.6764984,1
771,5.5622253,0.24440002,7.615448,1
772,5.592148,0.22644043,7.5567779999999996,1
773,5.612503,0.1953125,7.568756,1
774,5.656784,0.17497253,7.572342,1
775,5.6436157,0.16897583,7.599883999999999,1
776,5.6017303,0.20968628,7.613052400000001,1
777,5.5442656999999995,0.18693542,7.654953,1
778,5.513138,0.22644043,7.6764984,1
779,5.5035553,0.27671814,7.6106567,1
780,5.492782599999999,0.26115417,7.632202,1
781,5.513138,0.26115417,7.657333400000001,1
782,5.5514526,0.24559021,7.656142999999999,1
783,5.608902,0.25517273,7.6609343999999995,1
784,5.6184845,0.22525024,7.614242599999999,1
785,5.652008,0.2132721,7.604660000000001,1
786,5.6531982,0.17616272,7.622619599999999,1
787,5.6508026,0.25277710000000003,7.560378999999999,1
788,5.5993347,0.25038147,7.572342,1
789,5.568207,0.26715088,7.6070557,1
790,5.553833,0.23721313,7.614242599999999,1
791,5.537079,0.259964,7.656142999999999,1
792,5.511947599999999,0.25517273,7.642975,1
793,5.5789795,0.23841858,7.6764984,1
794,5.568207,0.21208191,7.658539,1
795,5.596939,0.2192688,7.6381836,1
796,5.607712,0.22764587,7.5567779999999996,1
797,5.607712,0.17616272,7.611847,1
798,5.607712,0.17497253,7.635788000000001,1
799,5.711853,0.17137146,7.575943,1
800,5.6819305,0.19172668,7.575943,1
801,5.592148,0.17497253,7.6106567,1
802,5.5753937,0.22883606,7.6178284,1
803,5.5801697,0.26115417,7.657333400000001,1
804,5.5478515999999996,0.20130920000000002,7.6501617,1
805,5.607712,0.2192688,7.6501617,1
806,5.596939,0.2240448,7.6010740000000006,1
807,5.4963837,0.26235962,7.621429400000001,1
808,5.4796143,0.2515869,7.659729,1
809,5.493988,0.26115417,7.6848755,1
810,5.4844055,0.22764587,7.696838400000001,1
811,5.502365,0.20848083,7.683669999999999,1
812,5.5239105,0.21687317,7.6417847000000005,1
813,5.521515,0.25038147,7.702835,1
814,5.5322876,0.2815094,7.657333400000001,1
815,5.552643,0.25875854,7.6465607,1
816,5.590957599999999,0.23242188,7.670501700000001,1
817,5.607712,0.19651794,7.644164999999999,1
818,5.5957336,0.14982605,7.6022797,1
819,5.604126,0.18933105,7.6896667,1
820,5.663971,0.16778564,7.6453705,1
821,5.5981293,0.15461731,7.620224,1
822,5.572998,0.17497253,7.623825,1
823,5.537079,0.16897583,7.6381836,1
824,5.533493,0.24559021,7.608261,1
825,5.56102,0.259964,7.6058655,1
826,5.6101074,0.3138275,7.616638000000001,1
827,5.671158,0.33059692,7.6896667,1
828,5.72023,0.26235962,7.626220699999999,1
829,5.7142487,0.20968628,7.5675507,1
830,5.501175,0.20370483,7.6058655,1
831,5.3371580000000005,0.18334961,7.7447357000000006,1
832,5.2042847000000005,0.23721313,7.8273315000000006,1
833,5.249771,0.26834106,7.792617999999999,1
834,5.265334999999999,0.28271484,7.750717,1
835,5.255768,0.30065918,7.7674713,1
836,5.2509765999999996,0.29707336,7.881195,1
837,5.2701263,0.27671814,7.8979645000000005,1
838,5.320404,0.27192688,7.853667999999999,1
839,5.312027,0.24320984,7.8261259999999995,1
840,5.3371580000000005,0.18574524,7.793808,1
841,5.3299866,0.20370483,7.766280999999999,1
842,5.335968,0.29588318,7.817749000000001,1
843,5.3216095,0.3102417,7.834503,1
844,5.343155,0.37129209999999996,7.809372,1
845,5.3407593,0.38446045,7.791412400000001,1
846,5.320404,0.3138275,7.8117676,1
847,5.296463,0.29109192,7.802185000000001,1
848,5.3072357000000006,0.26834106,7.791412400000001,1
849,5.328780999999999,0.25756836,7.7602844,1
850,5.3491364,0.22764587,7.748321499999999,1
851,5.425750700000001,0.24559021,7.7746580000000005,1
852,5.426941,0.22285461,7.750717,1
853,5.3970184,0.26475525,7.790222,1
854,5.38266,0.29109192,7.786621,1
855,5.391037,0.24200439999999998,7.790222,1
856,5.418564,0.27552795,7.7674713,1
857,5.4053955,0.28869629999999996,7.7495117,1
858,5.344345,0.21566772,7.7375490000000005,1
859,5.3539276,0.21087646,7.7626800000000005,1
860,5.327591,0.23960876,7.7447357000000006,1
861,5.3634949999999995,0.27192688,7.792617999999999,1
862,5.376663,0.28509520000000005,7.806976299999999,1
863,5.3623047,0.2695465,7.8381042,1
864,5.328780999999999,0.26115417,7.790222,1
865,5.343155,0.25038147,7.756698599999999,1
866,5.3634949999999995,0.29348755,7.7806396,1
867,5.373077400000001,0.2695465,7.757889,1
868,5.387436,0.2707367,7.7830353,1
869,5.4365234000000004,0.24798584,7.747116,1
870,5.394623,0.27432249999999997,7.6932526,1
871,5.3634949999999995,0.2707367,7.790222,1
872,5.367096,0.31861877,7.7997894,1
873,5.3539276,0.30426025,7.7985992,1
874,5.334778,0.27552795,7.786621,1
875,5.328780999999999,0.29588318,7.756698599999999,1
876,5.3096312999999995,0.259964,7.7315674,1
877,5.368286,0.29348755,7.7315674,1
878,5.4053955,0.30305479999999996,7.784225500000001,1
879,5.508346599999999,0.26715088,7.736343400000001,1
880,5.5765839999999995,0.25038147,7.683669999999999,1
881,5.558624299999999,0.20370483,7.665725699999999,1
882,5.520324700000001,0.21806335,7.68248,1
883,5.486801,0.22045898,7.6848755,1
884,5.520324700000001,0.24320984,7.6860657,1
885,5.48201,0.25038147,7.6788940000000006,1
886,5.540664700000001,0.25277710000000003,7.6501617,1
887,5.556228599999999,0.26594543,7.683669999999999,1
888,5.553833,0.27911377,7.636993400000001,1
889,5.529892,0.2815094,7.623825,1
890,5.565811,0.24081421,7.571151700000001,1
891,5.632843,0.25398254,7.577133,1
892,5.72023,0.2300415,7.5903015,1
893,5.6939087,0.27552795,7.563965,1
894,5.673553500000001,0.23123169,7.579528999999999,1
895,5.6927031999999995,0.20130920000000002,7.5232697,1
896,5.624466,0.21208191,7.525665299999999,1
897,5.6232758,0.2695465,7.5232697,1
898,5.6340485000000005,0.27792358,7.517272999999999,1
899,5.636444,0.23123169,7.537628,1
900,5.6496124000000005,0.24559021,7.5460052,1
901,5.673553500000001,0.24798584,7.5460052,1
902,5.723831,0.25637817,7.538833599999999,1
903,5.753753700000001,0.21806335,7.5232697,1
904,5.7800902999999995,0.2192688,7.481369,1
905,5.7645264,0.21806335,7.4358826,1
906,5.7621307,0.24200439999999998,7.4634094,1
907,5.817199700000001,0.24320984,7.4550323,1
908,5.7765045,0.22764587,7.4286957,1
909,5.711853,0.24798584,7.4921417,1
910,5.726227,0.27432249999999997,7.535232499999999,1
911,5.7214355,0.27313232,7.535232499999999,1
912,5.725021400000001,0.27671814,7.481369,1
913,5.719040000000001,0.31503296,7.489746,1
914,5.7381897,0.27192688,7.4215089999999995,1
915,5.7322083,0.2815094,7.457428,1
916,5.702286,0.2348175,7.482558999999999,1
917,5.6927031999999995,0.259964,7.5232697,1
918,5.745376599999999,0.24559021,7.5340424,1
919,5.704681400000001,0.25038147,7.512497,1
920,5.69989,0.2707367,7.536438,1
921,5.679535,0.28271484,7.5304413,1
922,5.6472169999999995,0.2707367,7.489746,1
923,5.671158,0.30665588,7.499328599999999,1
924,5.750168,0.30305479999999996,7.489746,1
925,5.853119,0.28390503,7.4861603,1
926,5.8794556,0.14624023,7.461014,1
927,5.8112183,0.15222168,7.4263,1
928,5.8279724,0.18214417,7.4215089999999995,1
929,5.7968445,0.22644043,7.449051,1
930,5.7369995000000005,0.259964,7.4358826,1
931,5.6615753,0.25038147,7.522064,1
932,5.515533400000001,0.2707367,7.5903015,1
933,5.5179290000000005,0.29826355,7.66333,1
934,5.550247,0.31503296,7.6860657,1
935,5.5801697,0.24559021,7.626220699999999,1
936,5.703476,0.17497253,7.5496063,1
937,5.8315735,0.1330719,7.475387599999999,1
938,5.844742,0.18214417,7.444259599999999,1
939,5.802841,0.19172668,7.443053999999999,1
940,5.806426999999999,0.19891357,7.462219,1
941,5.787277,0.2635498,7.413131699999999,1
942,5.719040000000001,0.22883606,7.4370728,1
943,5.6927031999999995,0.29826355,7.438263,1
944,5.715454,0.29348755,7.508896000000001,1
945,5.7142487,0.28988647,7.541214,1
946,5.669952400000001,0.2922821,7.577133,1
947,5.6184845,0.25038147,7.608261,1
948,5.6304474,0.259964,7.6022797,1
949,5.6496124000000005,0.24798584,7.5627747,1
950,5.6807404,0.2300415,7.577133,1
951,5.72023,0.22525024,7.510101299999999,1
952,5.7286224,0.19293213,7.499328599999999,1
953,5.6903076,0.22285461,7.469391000000001,1
954,5.6747437000000005,0.22285461,7.5029144,1
955,5.6855164,0.21566772,7.495727499999999,1
956,5.672348,0.21447754,7.5304413,1
957,5.6927031999999995,0.19172668,7.537628,1
958,5.715454,0.19172668,7.5316467000000005,1
959,5.695099,0.23242188,7.525665299999999,1
960,5.6663666,0.24679565,7.5747375,1
961,5.6819305,0.28630066,7.6106567,1
962,5.702286,0.23721313,7.577133,1
963,5.671158,0.2300415,7.526855499999999,1
964,5.6903076,0.22285461,7.536438,1
965,5.6855164,0.28509520000000005,7.4933320000000005,1
966,5.69989,0.27432249999999997,7.516083,1
967,5.7178497,0.2192688,7.5232697,1
968,5.731018,0.2695465,7.5065002000000005,1
969,5.6783447,0.20610046,7.508896000000001,1
970,5.675949,0.17736816,7.5112915,1
971,5.6771392999999994,0.22045898,7.525665299999999,1
972,5.673553500000001,0.23242188,7.561569,1
973,5.679535,0.2192688,7.587905999999999,1
974,5.702286,0.25038147,7.5232697,1
975,5.726227,0.20848083,7.5148773,1
976,5.719040000000001,0.23960876,7.4909362999999995,1
977,5.7178497,0.2300415,7.494537400000001,1
978,5.6939087,0.19770813,7.5041046,1
979,5.679535,0.2348175,7.5029144,1
980,5.696289,0.22644043,7.535232499999999,1
981,5.656784,0.2192688,7.5017242,1
982,5.6615753,0.22644043,7.5424194,1
983,5.6783447,0.24559021,7.552002000000001,1
984,5.703476,0.25517273,7.5232697,1
985,5.6903076,0.28988647,7.537628,1
986,5.644821,0.28509520000000005,7.555588,1
987,5.636444,0.29826355,7.5891113,1
988,5.6208800000000005,0.26715088,7.544815,1
989,5.660385,0.28509520000000005,7.5783385999999995,1
990,5.6819305,0.23721313,7.535232499999999,1
991,5.6974945,0.23841858,7.5280457,1
992,5.6867220000000005,0.2348175,7.500519000000001,1
993,5.6819305,0.25038147,7.5017242,1
994,5.657989499999999,0.24919128,7.5460052,1
995,5.702286,0.24919128,7.535232499999999,1
996,5.69989,0.26235962,7.5316467000000005,1
997,5.723831,0.18693542,7.525665299999999,1
998,5.7286224,0.21806335,7.561569,1
999,5.691513,0.23602295,7.5675507,1
1000,5.6184845,0.3497467,7.548400999999999,1
1001,5.556228599999999,0.32939148,7.568756,1
1002,5.613693,0.30665588,7.5974884000000005,1
1003,5.6807404,0.24559021,7.583114599999999,1
1004,5.702286,0.19412231,7.569946300000001,1
1005,5.6663666,0.1845398,7.516083,1
1006,5.660385,0.2132721,7.544815,1
1007,5.7094574,0.21447754,7.5184784,1
1008,5.725021400000001,0.2300415,7.5184784,1
1009,5.7441864,0.26235962,7.484955,1
1010,5.750168,0.23841858,7.482558999999999,1
1011,5.751358,0.26715088,7.5029144,1
1012,5.7286224,0.26834106,7.541214,1
1013,5.7214355,0.24559021,7.540024000000001,1
1014,5.703476,0.21208191,7.544815,1
1015,5.7286224,0.18693542,7.5304413,1
1016,5.7130585,0.1953125,7.5232697,1
1017,5.723831,0.21447754,7.5017242,1
1018,5.689117400000001,0.31143188,7.5460052,1
1019,5.703476,0.28509520000000005,7.561569,1
1020,5.727417,0.31263733,7.5472107,1
1021,5.751358,0.30784607,7.4933320000000005,1
1022,5.7645264,0.35572815,7.4909362999999995,1
1023,5.7920685,0.35453796,7.5065002000000005,1
1024,5.7549589999999995,0.28630066,7.553192,1
1025,5.794464,0.1905365,7.5340424,1
1026,5.6544037000000005,0.18095398,7.516083,1
1027,5.5310974,0.19293213,7.543609599999999,1
1028,5.581375,0.259964,7.5579834,1
1029,5.6352386,0.2707367,7.5041046,1
1030,5.747772,0.24200439999999998,7.489746,1
1031,5.8112183,0.21208191,7.444259599999999,1
1032,5.8279724,0.23123169,7.461014,1
1033,5.7789,0.24320984,7.425110000000001,1
1034,5.745376599999999,0.25398254,7.4155273,1
1035,5.7178497,0.2348175,7.4322815,1
1036,5.750168,0.259964,7.4634094,1
1037,5.7920685,0.2695465,7.4861603,1
1038,5.770523000000001,0.26115417,7.5029144,1
1039,5.7298126,0.299469,7.5112915,1
1040,5.7094574,0.29109192,7.494537400000001,1
1041,5.704681400000001,0.27552795,7.5041046,1
1042,5.7094574,0.2695465,7.489746,1
1043,5.6855164,0.28509520000000005,7.5340424,1
1044,5.668762,0.30426025,7.5292509999999995,1
1045,5.608902,0.25517273,7.5496063,1
1046,5.600525,0.26475525,7.566360499999999,1
1047,5.572998,0.27432249999999997,7.620224,1
1048,5.5741879999999995,0.30065918,7.587905999999999,1
1049,5.5981293,0.30305479999999996,7.642975,1
1050,5.6196747,0.31143188,7.6106567,1
1051,5.611297599999999,0.28630066,7.5974884000000005,1
1052,5.628067,0.31263733,7.5507965,1
1053,5.6591797,0.30426025,7.5627747,1
1054,5.663971,0.25637817,7.575943,1
1055,5.632843,0.27911377,7.563965,1
1056,5.584961,0.29826355,7.609451299999999,1
1057,5.589752,0.30186462,7.642975,1
1058,5.5789795,0.22644043,7.599883999999999,1
1059,5.608902,0.22164917,7.5974884000000005,1
1060,5.636444,0.20370483,7.604660000000001,1
1061,5.6208800000000005,0.25875854,7.6381836,1
1062,5.6855164,0.23242188,7.5567779999999996,1
1063,5.684326,0.25038147,7.5472107,1
1064,5.652008,0.29826355,7.5496063,1
1065,5.6268616,0.28869629999999996,7.5974884000000005,1
1066,5.600525,0.29826355,7.5986785999999995,1
1067,5.5993347,0.29348755,7.579528999999999,1
1068,5.600525,0.25517273,7.571151700000001,1
1069,5.611297599999999,0.26715088,7.5855103,1
1070,5.604126,0.25756836,7.5903015,1
1071,5.5310974,0.2922821,7.5903015,1
1072,5.552643,0.2635498,7.5974884000000005,1
1073,5.6304474,0.2803192,7.6381836,1
1074,5.667572,0.25517273,7.580719,1
1075,5.6591797,0.29109192,7.5496063,1
1076,5.5789795,0.27432249999999997,7.5507965,1
1077,5.600525,0.28630066,7.5579834,1
1078,5.629257,0.2922821,7.623825,1
1079,5.6460114,0.26115417,7.560378999999999,1
1080,5.6376343,0.28390503,7.595092999999999,1
1081,5.632843,0.2635498,7.616638000000001,1
1082,5.6232758,0.2300415,7.566360499999999,1
1083,5.611297599999999,0.24320984,7.575943,1
1084,5.6663666,0.24081421,7.580719,1
1085,5.679535,0.22285461,7.561569,1
1086,5.648407,0.22883606,7.5460052,1
1087,5.629257,0.23721313,7.6022797,1
1088,5.632843,0.27313232,7.5460052,1
1089,5.6340485000000005,0.25637817,7.568756,1
1090,5.6472169999999995,0.28509520000000005,7.604660000000001,1
1091,5.632843,0.27911377,7.52446,1
1092,5.611297599999999,0.25875854,7.543609599999999,1
1093,5.608902,0.27432249999999997,7.5627747,1
1094,5.5993347,0.28630066,7.572342,1
1095,5.632843,0.27552795,7.611847,1
1096,5.655594000000001,0.30426025,7.5567779999999996,1
1097,5.6867220000000005,0.25637817,7.5232697,1
1098,5.668762,0.23362732,7.5340424,1
1099,5.672348,0.23123169,7.541214,1
1100,5.6783447,0.22164917,7.575943,1
1101,5.711853,0.24320984,7.5065002000000005,1
1102,5.6663666,0.26715088,7.566360499999999,1
1103,5.7166443,0.31263733,7.58432,1
1104,5.6747437000000005,0.25398254,7.5783385999999995,1
1105,5.6663666,0.24320984,7.60347,1
1106,5.629257,0.2192688,7.5855103,1
1107,5.608902,0.26235962,7.579528999999999,1
1108,5.568207,0.30426025,7.538833599999999,1
1109,5.565811,0.32580566,7.5304413,1
1110,5.6148987,0.28390503,7.587905999999999,1
1111,5.6029205,0.30545044,7.5986785999999995,1
1112,5.608902,0.31263733,7.627411,1
1113,5.593338,0.28869629999999996,7.575943,1
1114,5.605316,0.2707367,7.6022797,1
1115,5.581375,0.30903625,7.6070557,1
1116,5.624466,0.27911377,7.5675507,1
1117,5.6101074,0.28509520000000005,7.60347,1
1118,5.6388397,0.28869629999999996,7.609451299999999,1
1119,5.6544037000000005,0.2635498,7.572342,1
1120,5.652008,0.28749084,7.599883999999999,1
1121,5.632843,0.23123169,7.575943,1
1122,5.624466,0.22045898,7.552002000000001,1
1123,5.668762,0.23602295,7.563965,1
1124,5.6412354,0.25277710000000003,7.58432,1
1125,5.631653,0.25637817,7.5567779999999996,1
1126,5.6340485000000005,0.28390503,7.583114599999999,1
1127,5.6304474,0.26715088,7.548400999999999,1
1128,5.629257,0.2707367,7.559173599999999,1
1129,5.6196747,0.29348755,7.586715700000001,1
1130,5.5622253,0.3509369,7.614242599999999,1
1131,5.5239105,0.33537292,7.616638000000001,1
1132,5.5430603,0.29109192,7.5855103,1
1133,5.552643,0.27671814,7.627411,1
1134,5.5717926,0.30305479999999996,7.6010740000000006,1
1135,5.593338,0.31143188,7.615448,1
1136,5.612503,0.31861877,7.625015299999999,1
1137,5.6029205,0.2815094,7.58432,1
1138,5.584961,0.2635498,7.6058655,1
1139,5.6196747,0.22644043,7.60347,1
1140,5.6388397,0.23602295,7.6058655,1
1141,5.6304474,0.19172668,7.571151700000001,1
1142,5.564621,0.24559021,7.6333923,1
1143,5.5753937,0.24440002,7.659729,1
1144,5.6029205,0.26235962,7.640579,1
1145,5.6101074,0.29348755,7.5891113,1
1146,5.616089,0.31861877,7.5675507,1
1147,5.5981293,0.30426025,7.575943,1
1148,5.5801697,0.27792358,7.5891113,1
1149,5.5993347,0.27552795,7.620224,1
1150,5.624466,0.28509520000000005,7.581924400000001,1
1151,5.655594000000001,0.28271484,7.592697,1
1152,5.652008,0.27552795,7.615448,1
1153,5.679535,0.27432249999999997,7.6010740000000006,1
1154,5.604126,0.24081421,7.6178284,1
1155,5.589752,0.22644043,7.5938873,1
1156,5.5885620000000005,0.2300415,7.632202,1
1157,5.564621,0.26235962,7.627411,1
1158,5.592148,0.24081421,7.581924400000001,1
1159,5.5765839999999995,0.25637817,7.6010740000000006,1
1160,5.628067,0.27911377,7.6070557,1
1161,5.613693,0.259964,7.625015299999999,1
1162,5.6376343,0.30545044,7.560378999999999,1
1163,5.6101074,0.23960876,7.613052400000001,1
1164,5.605316,0.28869629999999996,7.581924400000001,1
1165,5.590957599999999,0.2803192,7.595092999999999,1
1166,5.565811,0.2815094,7.6010740000000006,1
1167,5.5957336,0.29588318,7.5747375,1
1168,5.644821,0.29826355,7.580719,1
1169,5.6208800000000005,0.28271484,7.579528999999999,1
1170,5.6029205,0.23960876,7.5783385999999995,1
1171,5.5801697,0.27671814,7.599883999999999,1
1172,5.5873566,0.2815094,7.604660000000001,1
1173,5.590957599999999,0.26475525,7.614242599999999,1
1174,5.5753937,0.30065918,7.6333923,1
1175,5.593338,0.29467773,7.6058655,1
1176,5.6065062999999995,0.28869629999999996,7.6022797,1
1177,5.608902,0.30665588,7.5675507,1
1178,5.625671400000001,0.29588318,7.6010740000000006,1
1179,5.648407,0.2815094,7.5903015,1
1180,5.6412354,0.28390503,7.548400999999999,1
1181,5.632843,0.23960876,7.5460052,1
1182,5.6208800000000005,0.259964,7.623825,1
1183,5.644821,0.25637817,7.620224,1
1184,5.6065062999999995,0.32580566,7.5938873,1
1185,5.596939,0.28630066,7.5938873,1
1186,5.6268616,0.25398254,7.579528999999999,1
1187,5.6304474,0.2695465,7.553192,1
1188,5.584961,0.2803192,7.5735474,1
1189,5.5765839999999995,0.27552795,7.581924400000001,1
1190,5.584961,0.2635498,7.6058655,1
1191,5.6196747,0.28390503,7.6022797,1
1192,5.6496124000000005,0.2707367,7.5938873,1
1193,5.6831207,0.22883606,7.569946300000001,1
1194,5.7130585,0.23242188,7.508896000000001,1
1195,5.689117400000001,0.23242188,7.4921417,1
1196,5.663971,0.2815094,7.5460052,1
1197,5.684326,0.27792358,7.5304413,1
1198,5.673553500000001,0.29826355,7.5507965,1
1199,5.6867220000000005,0.28390503,7.540024000000001,1
1200,5.7070620000000005,0.28988647,7.512497,1
1201,5.722625700000001,0.25038147,7.5340424,1
1202,5.675949,0.26594543,7.5184784,1
1203,5.702286,0.2695465,7.498123,1
1204,5.723831,0.24320984,7.488556,1
1205,5.7286224,0.22644043,7.5424194,1
1206,5.7178497,0.21566772,7.5077057,1
1207,5.7094574,0.22164917,7.537628,1
1208,5.689117400000001,0.21087646,7.516083,1
1209,5.6939087,0.27911377,7.5340424,1
1210,5.7166443,0.28869629999999996,7.4861603,1
1211,5.6927031999999995,0.29467773,7.498123,1
1212,5.657989499999999,0.30186462,7.535232499999999,1
1213,5.6927031999999995,0.32699585,7.537628,1
1214,5.7094574,0.28630066,7.5543823,1
1215,5.751358,0.24081421,7.5460052,1
1216,5.8148040000000005,0.23123169,7.5065002000000005,1
1217,5.8279724,0.25875854,7.438263,1
1218,5.7968445,0.25277710000000003,7.4909362999999995,1
1219,5.794464,0.24081421,7.444259599999999,1
1220,5.8591003,0.26834106,7.456222500000001,1
1221,5.833969000000001,0.27313232,7.4705963,1
1222,5.7765045,0.24798584,7.4837646,1
1223,5.7286224,0.25277710000000003,7.459823599999999,1
1224,5.735794,0.3102417,7.496933,1
1225,5.6903076,0.32699585,7.461014,1
1226,5.7214355,0.31982422,7.487350500000001,1
1227,5.7609406,0.30305479999999996,7.449051,1
1228,5.726227,0.27192688,7.4634094,1
1229,5.751358,0.26834106,7.474182000000001,1
1230,5.758545,0.22285461,7.5029144,1
1231,5.7956543,0.26834106,7.4837646,1
1232,5.790863,0.24559021,7.4370728,1
1233,5.759735,0.25398254,7.439468400000001,1
1234,5.765732,0.25756836,7.4466553,1
1235,5.747772,0.24559021,7.4861603,1
1236,5.747772,0.2348175,7.4526367,1
1237,5.7130585,0.25038147,7.526855499999999,1
1238,5.731018,0.24919128,7.500519000000001,1
1239,5.7776947,0.23721313,7.5077057,1
1240,5.7322083,0.23841858,7.489746,1
1241,5.691513,0.28630066,7.520874000000001,1
1242,5.652008,0.26475525,7.5148773,1
1243,5.6831207,0.29588318,7.4933320000000005,1
1244,5.703476,0.24440002,7.4550323,1
1245,5.787277,0.25637817,7.4682007,1
1246,5.8076324,0.26475525,7.4717865,1
1247,5.8195953000000005,0.27552795,7.4586179999999995,1
1248,5.829178,0.2815094,7.42749,1
1249,5.7968445,0.25756836,7.4071503,1
1250,5.7800902999999995,0.25517273,7.4466553,1
1251,5.734604,0.22285461,7.4705963,1
1252,5.739395,0.259964,7.462219,1
1253,5.740585299999999,0.25875854,7.4801636,1
1254,5.727417,0.24679565,7.5280457,1
1255,5.746567,0.24798584,7.5232697,1
1256,5.7381897,0.259964,7.544815,1
1257,5.751358,0.21087646,7.489746,1
1258,5.726227,0.26475525,7.4801636,1
1259,5.702286,0.26235962,7.4789734,1
1260,5.7333984000000004,0.29707336,7.510101299999999,1
1261,5.715454,0.30903625,7.488556,1
1262,5.719040000000001,0.30545044,7.475387599999999,1
1263,5.726227,0.31861877,7.4669952,1
1264,5.751358,0.36051940000000005,7.476577799999999,1
1265,5.726227,0.32460022,7.489746,1
1266,5.7070620000000005,0.34616090000000005,7.456222500000001,1
1267,5.704681400000001,0.31982422,7.525665299999999,1
1268,5.691513,0.27192688,7.5077057,1
1269,5.687912,0.24081421,7.505310000000001,1
1270,5.671158,0.22644043,7.535232499999999,1
1271,5.679535,0.24559021,7.532837,1
1272,5.672348,0.25756836,7.5472107,1
1273,5.711853,0.22164917,7.520874000000001,1
1274,5.735794,0.23123169,7.5112915,1
1275,5.7010803,0.20729065,7.500519000000001,1
1276,5.7286224,0.20010376,7.5077057,1
1277,5.695099,0.21806335,7.5304413,1
1278,5.747772,0.2300415,7.4705963,1
1279,5.759735,0.24679565,7.513686999999999,1
1280,5.703476,0.23602295,7.500519000000001,1
1281,5.722625700000001,0.2300415,7.42749,1
1282,5.695099,0.27192688,7.477767999999999,1
1283,5.7070620000000005,0.31622314,7.5041046,1
1284,5.7130585,0.31982422,7.520874000000001,1
1285,5.735794,0.3222046,7.52446,1
1286,5.69989,0.29707336,7.565170299999999,1
1287,5.667572,0.32341003,7.561569,1
1288,5.696289,0.28390503,7.5424194,1
1289,5.7298126,0.27792358,7.5196686,1
1290,5.72023,0.2635498,7.4634094,1
1291,5.7549589999999995,0.24081421,7.5017242,1
1292,5.753753700000001,0.23721313,7.5029144,1
1293,5.768127400000001,0.20848083,7.4717865,1
1294,5.7286224,0.2348175,7.5065002000000005,1
1295,5.689117400000001,0.23362732,7.543609599999999,1
1296,5.696289,0.25517273,7.565170299999999,1
1297,5.6615753,0.2635498,7.572342,1
1298,5.663971,0.2707367,7.538833599999999,1
1299,5.6903076,0.28630066,7.5316467000000005,1
1300,5.6831207,0.28988647,7.500519000000001,1
1301,5.7214355,0.29348755,7.5029144,1
1302,5.711853,0.2815094,7.516083,1
1303,5.719040000000001,0.26475525,7.581924400000001,1
1304,5.691513,0.27432249999999997,7.537628,1
1305,5.675949,0.27671814,7.5304413,1
1306,5.669952400000001,0.24919128,7.5424194,1
1307,5.679535,0.26594543,7.568756,1
1308,5.704681400000001,0.27192688,7.5424194,1
1309,5.6855164,0.28988647,7.5460052,1
1310,5.7333984000000004,0.2815094,7.544815,1
1311,5.72023,0.26235962,7.532837,1
1312,5.671158,0.2300415,7.510101299999999,1
1313,5.672348,0.25875854,7.496933,1
1314,5.673553500000001,0.21087646,7.488556,1
1315,5.655594000000001,0.24320984,7.538833599999999,1
1316,5.6472169999999995,0.25875854,7.561569,1
1317,5.663971,0.27911377,7.571151700000001,1
1318,5.672348,0.25637817,7.5627747,1
1319,5.669952400000001,0.22764587,7.5424194,1
1320,5.612503,0.25875854,7.586715700000001,1
1321,5.613693,0.25517273,7.5735474,1
1322,5.6412354,0.27192688,7.5148773,1
1323,5.7298126,0.259964,7.513686999999999,1
1324,5.734604,0.22883606,7.4933320000000005,1
1325,5.750168,0.23362732,7.513686999999999,1
1326,5.7369995000000005,0.28869629999999996,7.484955,1
1327,5.611297599999999,0.26475525,7.561569,1
1328,5.5227203000000005,0.22644043,7.630996700000001,1
1329,5.508346599999999,0.21447754,7.7016296,1
1330,5.511947599999999,0.23841858,7.7291718,1
1331,5.464050299999999,0.25875854,7.7351529999999995,1
1332,5.4461059999999994,0.25756836,7.7447357000000006,1
1333,5.448501599999999,0.25875854,7.723175,1
1334,5.4784239999999995,0.27792358,7.7315674,1
1335,5.473633,0.21087646,7.718399000000001,1
1336,5.497574,0.19412231,7.680084,1
1337,5.515533400000001,0.1905365,7.699234,1
1338,5.5167236,0.14982605,7.654953,1
1339,5.4724426,0.1845398,7.7447357000000006,1
1340,5.434128,0.15342712,7.707611,1
1341,5.423355,0.24440002,7.771057000000001,1
1342,5.373077400000001,0.27192688,7.766280999999999,1
1343,5.3491364,0.36889648,7.8009949999999995,1
1344,5.344345,0.338974,7.8381042,1
1345,5.374283,0.31742859999999995,7.8405,1
1346,5.470047,0.31143188,7.748321499999999,1
1347,5.4880066,0.2922821,7.644164999999999,1
1348,5.492782599999999,0.25277710000000003,7.6717070000000005,1
1349,5.5047607,0.23960876,7.6944427,1
1350,5.4353333,0.25637817,7.7171936,1
1351,5.4053955,0.17736816,7.711212,1
1352,5.4293365,0.13786316,7.680084,1
1353,5.4987793,0.20249939,7.702835,1
1354,5.493988,0.28630066,7.7650757,1
1355,5.3503264999999995,0.31263733,7.82135,1
1356,5.316818,0.24679565,7.759094,1
1357,5.352722,0.15940857,7.710006699999999,1
1358,5.4592743,0.040893555,7.7171936,1
1359,5.5717926,0.079193115,7.669311500000001,1
1360,5.605316,0.06602478,7.68248,1
1361,5.5706024,0.115112305,7.690857,1
1362,5.5514526,0.15461731,7.785431,1
1363,5.376663,0.299469,7.9566193,1
1364,5.289276,0.26115417,7.7447357000000006,1
1365,5.259353599999999,0.12828064,7.6860657,1
1366,5.361114499999999,0.069625854,7.772262599999999,1
1367,5.3467407,0.12588501,7.832122999999999,1
1368,5.3802642999999994,0.21806335,7.757889,1
1369,5.4197693,0.2815094,7.6944427,1
1370,5.4664459999999995,0.23242188,7.698044,1
1371,5.492782599999999,0.16539001,7.7303619999999995,1
1372,5.4844055,0.15701294,7.7040253,1
1373,5.490387,0.12469482400000001,7.6932526,1
1374,5.4592743,0.07081604,7.7686768,1
1375,5.431732,0.06842041,7.7997894,1
1376,5.4053955,0.18334961,7.7674713,1
1377,5.352722,0.26235962,7.736343400000001,1
1378,5.391037,0.33299255,7.805786,1
1379,5.4664459999999995,0.32939148,7.7758484,1
1380,5.438919,0.33537292,7.832122999999999,1
1381,5.394623,0.18334961,7.6178284,1
1382,5.4137726,0.10433959999999999,7.7555084,1
1383,5.425750700000001,0.086380005,7.805786,1
1384,5.3886414,0.14384460000000002,7.7650757,1
1385,5.4077910000000005,0.13905334,7.721985000000001,1
1386,5.4676514,0.088775635,7.706421000000001,1
1387,5.454483,0.10314941400000001,7.741134599999999,1
1388,5.38385,0.16897583,7.823730499999999,1
1389,5.2845,0.2300415,7.790222,1
1390,5.3958281999999995,0.2240448,7.7423399999999996,1
1391,5.408996599999999,0.25756836,7.7207794000000005,1
1392,5.4053955,0.28749084,7.7124023,1
1393,5.416168,0.25637817,7.7303619999999995,1
1394,5.46167,0.23721313,7.706421000000001,1
1395,5.528702,0.22164917,7.644164999999999,1
1396,5.5179290000000005,0.24919128,7.7255707,1
1397,5.425750700000001,0.22525024,7.7291718,1
1398,5.4592743,0.18693542,7.721985000000001,1
1399,5.455673,0.1905365,7.7626800000000005,1
1400,5.46286,0.22525024,7.736343400000001,1
1401,5.426941,0.24559021,7.714797999999999,1
1402,5.425750700000001,0.24679565,7.7327576,1
1403,5.376663,0.20729065,7.736343400000001,1
1404,5.320404,0.19172668,7.7495117,1
1405,5.3419495,0.19172668,7.8273315000000006,1
1406,5.3623047,0.17497253,7.822540299999999,1
1407,5.2976529999999995,0.15940857,7.835708599999999,1
1408,5.2521667,0.14624023,7.850067,1
1409,5.2976529999999995,0.20010376,7.8907776,1
1410,5.326385500000001,0.19770813,7.8476715,1
1411,5.3898315000000006,0.19651794,7.806976299999999,1
1412,5.399414,0.17497253,7.792617999999999,1
1413,5.491592400000001,0.117507935,7.769867,1
1414,5.486801,0.15701294,7.7160034,1
1415,5.4520874,0.18814087,7.6621246,1
1416,5.355118,0.1725769,7.669311500000001,1
1417,5.3371580000000005,0.15461731,7.747116,1
1418,5.3850555,0.14863586,7.7950134,1
1419,5.4832152999999995,0.12348938,7.741134599999999,1
1420,5.490387,0.20249939,7.7016296,1
1421,5.4844055,0.23362732,7.702835,1
1422,5.456878700000001,0.27671814,7.721985000000001,1
1423,5.448501599999999,0.22764587,7.7327576,1
1424,5.425750700000001,0.1510315,7.711212,1
1425,5.448501599999999,0.17137146,7.7638855,1
1426,5.4053955,0.21806335,7.7758484,1
1427,5.358719000000001,0.29109192,7.773452799999999,1
1428,5.3623047,0.29467773,7.8033905,1
1429,5.371887,0.34616090000000005,7.8033905,1
1430,5.4077910000000005,0.30065918,7.714797999999999,1
1431,5.509551999999999,0.30426025,7.7040253,1
1432,5.624466,0.28869629999999996,7.5543823,1
1433,5.586166400000001,0.28988647,7.580719,1
1434,5.5550385,0.2300415,7.652557400000001,1
1435,5.5310974,0.20610046,7.665725699999999,1
1436,5.5801697,0.12109375,7.6764984,1
1437,5.5275115999999995,0.09715271,7.6776886,1
1438,5.529892,0.06602478,7.651352,1
1439,5.533493,0.112716675,7.635788000000001,1
1440,5.590957599999999,0.16778564,7.609451299999999,1
1441,5.6436157,0.2300415,7.6381836,1
1442,5.6927031999999995,0.3222046,7.625015299999999,1
1443,5.711853,0.30784607,7.6621246,1
1444,5.689117400000001,0.32699585,7.544815,1
1445,5.6460114,0.26715088,7.580719,1
1446,5.611297599999999,0.34136963,7.540024000000001,1
1447,5.5071564,0.3677063,7.614242599999999,1
1448,5.4413147,0.45628357,7.659729,1
1449,5.4413147,0.41079712,7.635788000000001,1
1450,5.509551999999999,0.32580566,7.6681213,1
1451,5.6101074,0.25756836,7.630996700000001,1
1452,5.704681400000001,0.24081421,7.611847,1
1453,5.7573547,0.18095398,7.548400999999999,1
1454,5.7489624,0.14624023,7.522064,1
1455,5.684326,0.12828064,7.559173599999999,1
1456,5.6208800000000005,0.13067627,7.5543823,1
1457,5.624466,0.18814087,7.595092999999999,1
1458,5.5765839999999995,0.19412231,7.5938873,1
1459,5.556228599999999,0.23721313,7.6058655,1
1460,5.541869999999999,0.24559021,7.658539,1
1461,5.5310974,0.27432249999999997,7.647766000000001,1
1462,5.5358887,0.2922821,7.6884613,1
1463,5.5322876,0.259964,7.635788000000001,1
1464,5.6304474,0.24081421,7.592697,1
1465,5.704681400000001,0.23721313,7.548400999999999,1
1466,5.7070620000000005,0.19770813,7.52446,1
1467,5.7333984000000004,0.1905365,7.5424194,1
1468,5.7214355,0.20729065,7.540024000000001,1
1469,5.7178497,0.2132721,7.449051,1
1470,5.6508026,0.2707367,7.510101299999999,1
1471,5.64003,0.25398254,7.5735474,1
1472,5.6220703,0.26115417,7.648956299999999,1
1473,5.545456,0.2803192,7.654953,1
1474,5.455673,0.27192688,7.706421000000001,1
1475,5.464050299999999,0.23841858,7.696838400000001,1
1476,5.5035553,0.22164917,7.6717070000000005,1
1477,5.4832152999999995,0.23721313,7.6848755,1
1478,5.46286,0.2348175,7.690857,1
1479,5.533493,0.22285461,7.6728973,1
1480,5.540664700000001,0.21208191,7.6812744,1
1481,5.549057,0.20610046,7.620224,1
1482,5.550247,0.16778564,7.6298065,1
1483,5.5167236,0.20729065,7.6717070000000005,1
1484,5.510742,0.22164917,7.656142999999999,1
1485,5.502365,0.25277710000000003,7.6896667,1
1486,5.4856110000000005,0.24559021,7.699234,1
1487,5.4832152999999995,0.25398254,7.739944500000001,1
1488,5.468841599999999,0.20130920000000002,7.738739,1
1489,5.4329376,0.22644043,7.718399000000001,1
1490,5.4293365,0.21087646,7.7351529999999995,1
1491,5.4796143,0.20610046,7.7327576,1
1492,5.4796143,0.17736816,7.7052307,1
1493,5.491592400000001,0.2348175,7.6728973,1
1494,5.4832152999999995,0.27671814,7.6669160000000005,1
1495,5.448501599999999,0.29826355,7.7016296,1
1496,5.458069,0.29467773,7.7279663,1
1497,5.489197,0.2922821,7.708816499999999,1
1498,5.4796143,0.29588318,7.708816499999999,1
1499,5.4532776,0.29348755,7.713608,1
1500,5.4413147,0.27432249999999997,7.7303619999999995,1
1501,5.438919,0.24919128,7.7052307,1
1502,5.4664459999999995,0.20489502,7.6848755,1
1503,5.4880066,0.2348175,7.7339478,1
1504,5.5167236,0.27671814,7.7160034,1
1505,5.5466614000000005,0.2240448,7.6717070000000005,1
1506,5.534683,0.17855835,7.6621246,1
1507,5.497574,0.22164917,7.711212,1
1508,5.489197,0.1845398,7.757889,1
1509,5.449692,0.18574524,7.7016296,1
1510,5.46286,0.19891357,7.6812744,1
1511,5.4963837,0.2635498,7.6860657,1
1512,5.4999695,0.26115417,7.613052400000001,1
1513,5.510742,0.259964,7.630996700000001,1
1514,5.5047607,0.25038147,7.6728973,1
1515,5.533493,0.25875854,7.698044,1
1516,5.515533400000001,0.2515869,7.7040253,1
1517,5.502365,0.23242188,7.708816499999999,1
1518,5.4796143,0.21566772,7.7279663,1
1519,5.501175,0.25277710000000003,7.721985000000001,1
1520,5.471237,0.24798584,7.711212,1
1521,5.4676514,0.30065918,7.66333,1
1522,5.510742,0.24081421,7.6645202999999995,1
1523,5.511947599999999,0.2515869,7.690857,1
1524,5.525116000000001,0.21208191,7.6609343999999995,1
1525,5.525116000000001,0.24320984,7.674103,1
1526,5.5598297,0.24081421,7.68248,1
1527,5.5430603,0.22045898,7.6286163,1
1528,5.529892,0.20968628,7.653747599999999,1
1529,5.5310974,0.21806335,7.653747599999999,1
1530,5.533493,0.22164917,7.6860657,1
1531,5.545456,0.24081421,7.6788940000000006,1
1532,5.550247,0.259964,7.653747599999999,1
1533,5.553833,0.25637817,7.6286163,1
1534,5.56102,0.25277710000000003,7.6681213,1
1535,5.5191193,0.26834106,7.6764984,1
1536,5.495178,0.2695465,7.6776886,1
1537,5.4784239999999995,0.2635498,7.6453705,1
1538,5.497574,0.25875854,7.6944427,1
1539,5.4880066,0.32101440000000003,7.7016296,1
1540,5.5167236,0.24798584,7.6884613,1
1541,5.5394745,0.23123169,7.6776886,1
1542,5.5239105,0.18574524,7.632202,1
1543,5.5239105,0.22285461,7.6453705,1
1544,5.604126,0.19770813,7.669311500000001,1
1545,5.6220703,0.19172668,7.595092999999999,1
1546,5.5777893,0.2192688,7.635788000000001,1
1547,5.5275115999999995,0.24081421,7.6944427,1
1548,5.4724426,0.24679565,7.68248,1
1549,5.449692,0.27552795,7.7171936,1
1550,5.449692,0.24440002,7.7016296,1
1551,5.447296,0.2348175,7.654953,1
1552,5.4449005,0.25277710000000003,7.6848755,1
1553,5.455673,0.25398254,7.659729,1
1554,5.489197,0.27432249999999997,7.695647999999999,1
1555,5.5191193,0.26715088,7.702835,1
1556,5.4999695,0.2300415,7.690857,1
1557,5.501175,0.2348175,7.7243805,1
1558,5.521515,0.24081421,7.66333,1
1559,5.495178,0.22644043,7.6884613,1
1560,5.5191193,0.2815094,7.702835,1
1561,5.491592400000001,0.28630066,7.7255707,1
1562,5.511947599999999,0.26594543,7.6669160000000005,1
1563,5.4963837,0.21087646,7.670501700000001,1
1564,5.490387,0.22764587,7.6501617,1
1565,5.5191193,0.24200439999999998,7.711212,1
1566,5.5035553,0.23841858,7.6788940000000006,1
1567,5.4999695,0.26235962,7.706421000000001,1
1568,5.5394745,0.27432249999999997,7.6944427,1
1569,5.541869999999999,0.27313232,7.6776886,1
1570,5.540664700000001,0.24798584,7.6896667,1
1571,5.5035553,0.25277710000000003,7.6932526,1
1572,5.5059510000000005,0.23960876,7.680084,1
1573,5.525116000000001,0.21566772,7.675292999999999,1
1574,5.550247,0.20968628,7.665725699999999,1
1575,5.5143433,0.24081421,7.654953,1
1576,5.513138,0.24559021,7.627411,1
1577,5.5143433,0.22525024,7.659729,1
1578,5.509551999999999,0.20848083,7.6621246,1
1579,5.534683,0.23362732,7.6453705,1
1580,5.525116000000001,0.26475525,7.6932526,1
1581,5.533493,0.23362732,7.6848755,1
1582,5.5179290000000005,0.24320984,7.6393889999999995,1
1583,5.5801697,0.21806335,7.640579,1
1584,5.509551999999999,0.2132721,7.6058655,1
1585,5.537079,0.20610046,7.659729,1
1586,5.5825653,0.22883606,7.622619599999999,1
1587,5.553833,0.23721313,7.5938873,1
1588,5.5430603,0.20610046,7.652557400000001,1
1589,5.5442656999999995,0.24320984,7.700439500000001,1
1590,5.4999695,0.24919128,7.718399000000001,1
1591,5.534683,0.2635498,7.652557400000001,1
1592,5.5634155,0.26594543,7.656142999999999,1
1593,5.550247,0.28630066,7.587905999999999,1
1594,5.534683,0.25637817,7.6453705,1
1595,5.511947599999999,0.21447754,7.6106567,1
1596,5.528702,0.2635498,7.6417847000000005,1
1597,5.5670013,0.23960876,7.670501700000001,1
1598,5.5239105,0.24559021,7.6393889999999995,1
1599,5.5442656999999995,0.24440002,7.6681213,1
1600,5.5059510000000005,0.21447754,7.6669160000000005,1
1601,5.5071564,0.26475525,7.6501617,1
1602,5.490387,0.25517273,7.6728973,1
1603,5.520324700000001,0.26235962,7.7160034,1
1604,5.509551999999999,0.23602295,7.692062400000001,1
1605,5.5382843,0.21687317,7.68248,1
1606,5.4987793,0.20729065,7.6669160000000005,1
1607,5.521515,0.24679565,7.6645202999999995,1
1608,5.502365,0.2635498,7.675292999999999,1
1609,5.521515,0.26115417,7.675292999999999,1
1610,5.5275115999999995,0.23960876,7.6681213,1
1611,5.550247,0.27432249999999997,7.6393889999999995,1
1612,5.56102,0.24320984,7.6764984,1
1613,5.5550385,0.28509520000000005,7.630996700000001,1
1614,5.545456,0.26594543,7.670501700000001,1
1615,5.529892,0.25038147,7.6776886,1
1616,5.520324700000001,0.2635498,7.658539,1
1617,5.5167236,0.25875854,7.632202,1
1618,5.5442656999999995,0.24200439999999998,7.6645202999999995,1
1619,5.529892,0.23362732,7.6776886,1
1620,5.491592400000001,0.26834106,7.680084,1
1621,5.552643,0.27313232,7.6728973,1
1622,5.5191193,0.2635498,7.669311500000001,1
1623,5.529892,0.22045898,7.6896667,1
1624,5.5885620000000005,0.19770813,7.6298065,1
1625,5.564621,0.20848083,7.616638000000001,1
1626,5.510742,0.20010376,7.6393889999999995,1
1627,5.471237,0.18334961,7.657333400000001,1
1628,5.5322876,0.17616272,7.632202,1
1629,5.604126,0.18214417,7.652557400000001,1
1630,5.5514526,0.24679565,7.7315674,1
1631,5.493988,0.32460022,7.748321499999999,1
1632,5.4724426,0.33657837,7.7243805,1
1633,5.3539276,0.34854126,7.6345979999999996,1
1634,5.335968,0.299469,7.5627747,1
1635,5.347946,0.24559021,7.4658050000000005,1
1636,5.4197693,0.12348938,7.338913000000001,1
1637,5.4401093000000005,0.057647705,7.2934265,1
1638,5.425750700000001,-0.045303345,7.158142,1
1639,5.355118,-0.09677124,7.071960400000001,1
1640,5.866287000000001,-0.093185425,6.840911999999999,1
1641,6.257736,0.083984375,7.198852499999999,1
1642,6.012329,0.2695465,7.451431299999999,1
1643,4.9157867,0.26115417,8.243912,1
1644,3.8874817000000004,0.064834595,9.253082000000001,1
1645,4.857132,0.08758545,8.57312,1
1646,4.5746155,-0.12071228,8.636566,1
1647,4.748183999999999,-0.0440979,8.771835000000001,1
1648,4.729034400000001,-0.05128479,8.634171,1
1649,4.675171,0.040893555,8.562347,1
1650,4.701507599999999,0.04927063,8.538406,1
1651,4.758972,0.10194397,8.448624,1
1652,4.798477,0.12828064,8.39595,1
1653,4.7888947,0.09715271,8.2547,1
1654,4.7362212999999995,0.03491211,8.241531,1
1655,4.617706299999999,-0.038116455,8.271453999999999,1
1656,4.5758057,-0.06564331,8.338486,1
1657,4.549469,-0.095581055,8.422286999999999,1
1658,4.4130096,-0.109939575,8.445038,1
1659,4.173584,-0.102752686,8.564743,1
1660,3.7917023000000003,-0.16021729,8.635375999999999,1
1661,3.9736633,-0.19134521,8.871201,1
1662,4.3148346,-0.19732666,8.866408999999999,1
1663,4.5662384000000005,-0.119522095,8.611435,1
1664,4.4956055,0.16419983,8.538406,1
1665,4.217880200000001,0.30903625,8.586288,1
1666,3.9724730999999998,0.20729065,8.683258,1
1667,3.9114226999999997,0.02532959,8.574326,1
1668,4.1520386,-0.02015686,8.5551605,1
1669,4.3100586,0.013366699,8.610229499999999,1
1670,4.3256073,0.05166626,8.635375999999999,1
1671,4.3842773,0.067230225,8.557556,1
1672,4.323226999999999,0.014556885,8.465378,1
1673,4.259780999999999,0.01574707,8.490524,1
1674,4.245407,-0.0045928955,8.534821,1
1675,4.348358,-0.009384155,8.540802000000001,1
1676,4.3782806,-0.006988525400000001,8.460602,1
1677,4.3519440000000005,0.0061798096,8.449814,1
1678,4.3100586,0.04447937,8.470169,1
1679,4.302871700000001,0.046875,8.466583,1
1680,4.469269000000001,-0.0105896,8.410309,1
1681,4.5159607,-0.059661865,8.442642,1
1682,4.4333496,-0.066848755,8.468979,1
1683,4.348358,-0.0010070800999999999,8.449814,1
1684,4.252594,0.046875,8.49292,1
1685,4.143661499999999,0.046875,8.478546000000001,1
1686,4.207107499999999,0.008575439,8.464188,1
1687,4.293289,-0.074035645,8.464188,1
1688,4.4285583,-0.12310791,8.439041,1
1689,4.527923599999999,-0.102752686,8.431869500000001,1
1690,4.5674285999999995,-0.047698975,8.429474,1
1691,4.5865784000000005,-0.00340271,8.330109,1
1692,4.5207367,0.019348145,8.321732,1
1693,4.4357452,0.0049743652,8.388763,1
1694,4.366317700000001,0.074417114,8.433060000000001,1
1695,4.426178,0.13786316,8.370819000000001,1
1696,4.486023,0.18814087,8.362427,1
1697,4.5841827,0.24919128,8.330109,1
1698,4.6691895,0.30903625,8.306168,1
1699,4.73024,0.38206482,8.295395,1
1700,4.7769165000000005,0.45269775,8.330109,1
1701,4.580597,0.37249756,8.192444,1
1702,4.4644775,0.20249939,8.127808,1
1703,4.4249725,0.038497925,8.240326,1
1704,4.389068599999999,0.016952515,8.366028,1
1705,4.33519,0.03970337,8.304977000000001,1
1706,4.3316040000000005,0.04447937,8.344482000000001,1
1707,4.3148346,0.00019836426,8.428268,1
1708,4.269348,-0.05368042,8.397155999999999,1
1709,4.457290599999999,-0.12071228,8.345673,1
1710,4.6979065,-0.2212677,8.298981,1
1711,4.8547363,-0.16859436,8.331314,1
1712,4.900223,-0.14346313,8.380386,1
1713,5.04747,0.033706665,8.350464,1
1714,5.039093,0.4000244,8.2582855,1
1715,4.869095,0.57240295,8.1948395,1
1716,4.7314300000000005,0.6178894,8.185257,1
1717,4.6931305,0.5472716999999999,8.143355999999999,1
1718,4.65123,0.41079712,8.182861,1
1719,4.683548,0.29467773,8.331314,1
1720,4.6141205,0.18214417,8.388763,1
1721,4.557846,0.093566895,8.457001,1
1722,4.5758057,0.02293396,8.405533,1
1723,4.5207367,-0.023742676,8.403137,1
1724,4.432159400000001,-0.035720825,8.331314,1
1725,4.3363953,-0.093185425,8.322922,1
1726,4.338775599999999,-0.107543945,8.403137,1
1727,4.4010315,-0.045303345,8.472565,1
1728,4.6236877,0.105529785,8.525238,1
1729,4.770935,0.122299194,8.433060000000001,1
1730,4.7805176,-0.01776123,8.241531,1
1731,4.6572113,-0.040512085,8.241531,1
1732,4.5255279999999996,0.009765625,8.252303999999999,1
1733,4.585388,0.03970337,8.249908,1
1734,4.684737999999999,0.07800293,8.134979,1
1735,4.9229736,0.052871704000000005,8.17569,1
1736,5.0462646,0.007369995,8.330109,1
1737,4.878677400000001,0.09715271,8.275039999999999,1
1738,4.524337999999999,0.20968628,8.318146,1
1739,4.293289,0.3222046,8.199631,1
1740,4.2861176,0.36531067,8.213989,1
1741,4.426178,0.31622314,8.270247999999999,1
1742,4.6141205,0.33537292,8.318146,1
1743,4.73024,0.259964,8.39595,1
1744,4.7206573,0.21087646,8.411514,1
1745,4.656021,0.12469482400000001,8.391159,1
1746,4.6739654999999996,0.11152649,8.278641,1
1747,4.758972,0.069625854,8.191253999999999,1
1748,4.7254486,0.045684814000000004,8.180466000000001,1
1749,4.690735,0.016952515,8.222366000000001,1
1750,4.648834,-0.02015686,8.289413,1
1751,4.65123,0.046875,8.295395,1
1752,4.683548,0.13786316,8.312149,1
1753,4.717071499999999,0.13067627,8.2582855,1
1754,4.6620026,0.11152649,8.246307,1
1755,4.5937653,0.088775635,8.294205,1
1756,4.561447,0.11392212,8.343277,1
1757,4.5901794,0.12469482400000001,8.379196,1
1758,4.6153107,0.19293213,8.372009,1
1759,4.664398,0.1725769,8.303772,1
1760,4.6967163,0.17018127,8.328918,1
1761,4.645248400000001,0.20370483,8.284622,1
1762,4.5674285999999995,0.17497253,8.255889999999999,1
1763,4.561447,0.21087646,8.23793,1
1764,4.679962000000001,0.24081421,8.283417,1
1765,4.7182617,0.22644043,8.263077000000001,1
1766,4.6967163,0.16897583,8.248702999999999,1
1767,4.7122803,0.17376709,8.278641,1
1768,4.6727753,0.18574524,8.282227,1
1769,4.6500244,0.22285461,8.255889999999999,1
1770,4.675171,0.24081421,8.298981,1
1771,4.6308746,0.24559021,8.276245,1
1772,4.656021,0.23960876,8.260681,1
1773,4.6787567,0.17736816,8.264267,1
1774,4.666794,0.16778564,8.291808999999999,1
1775,4.7613525,0.22644043,8.228363,1
1776,4.794876,0.22644043,8.216385,1
1777,4.7434080000000005,0.20729065,8.209197999999999,1
1778,4.701507599999999,0.19172668,8.252303999999999,1
1779,4.6967163,0.18814087,8.246307,1
1780,4.7434080000000005,0.22525024,8.228363,1
1781,4.7733307,0.18933105,8.170898,1
1782,4.7601624000000005,0.14624023,8.255889999999999,1
1783,4.7912903,0.1845398,8.277435,1
1784,4.7733307,0.2132721,8.252303999999999,1
1785,4.7254486,0.21687317,8.282227,1
1786,4.489624,0.20610046,8.295395,1
1787,4.39505,0.21566772,8.376800999999999,1
1788,4.4417267,0.26834106,8.387573,1
1789,4.549469,0.24081421,8.399536,1
1790,4.5758057,0.24200439999999998,8.393555000000001,1
1791,4.5865784000000005,0.23602295,8.349258,1
1792,4.5782013,0.20370483,8.306168,1
1793,4.647629,0.15580750000000002,8.249908,1
1794,4.684737999999999,0.076812744,8.261871000000001,1
1795,4.676361,0.033706665,8.239136,1
1796,4.684737999999999,0.062438965,8.252303999999999,1
1797,4.6572113,0.11631775,8.267868,1
1798,4.642853,0.17018127,8.270247999999999,1
1799,4.616516000000001,0.19770813,8.277435,1
1800,4.5865784000000005,0.24200439999999998,8.336089999999999,1
1801,4.569824,0.25517273,8.427078,1
1802,4.5434875,0.28390503,8.435455000000001,1
1803,4.5662384000000005,0.28749084,8.386368,1
1804,4.6105194,0.23362732,8.324127,1
1805,4.6691895,0.22045898,8.313354499999999,1
1806,4.690735,0.24440002,8.273849499999999,1
1807,4.675171,0.1845398,8.245117,1
1808,4.6691895,0.1845398,8.21759,1
1809,4.6703795999999995,0.18095398,8.205612,1
1810,4.684737999999999,0.19293213,8.23793,1
1811,4.667984,0.16419983,8.2582855,1
1812,4.6356660000000005,0.18574524,8.240326,1
1813,4.6332703,0.18574524,8.277435,1
1814,4.6584015,0.19891357,8.270247999999999,1
1815,4.676361,0.16419983,8.304977000000001,1
1816,4.659607,0.17497253,8.290604,1
1817,4.6536254999999995,0.18334961,8.322922,1
1818,4.6584015,0.17018127,8.301376,1
1819,4.6811523,0.18814087,8.287018,1
1820,4.739807,0.18574524,8.272644,1
1821,4.782913,0.15580750000000002,8.229553,1
1822,4.8283997,0.13665771,8.263077000000001,1
1823,4.8367767,0.1510315,8.206802,1
1824,4.861923,0.17616272,8.143355999999999,1
1825,4.814026,0.18334961,8.131393,1
1826,4.8236084,0.18693542,8.145752,1
1827,4.870300299999999,0.2635498,8.200821000000001,1
1828,4.837967,0.26594543,8.166107,1
1829,4.849945,0.26594543,8.163712,1
1830,4.837967,0.27671814,8.148147999999999,1
1831,4.857132,0.27671814,8.184067,1
1832,4.774521,0.30545044,8.164916999999999,1
1833,4.738617,0.31861877,8.190047999999999,1
1834,4.707489,0.25517273,8.187653,1
1835,4.784103400000001,0.2240448,8.19603,1
1836,4.873886,0.12469482400000001,8.219971000000001,1
1837,4.870300299999999,0.13905334,8.240326,1
1838,4.8726959999999995,0.10433959999999999,8.199631,1
1839,4.9122010000000005,0.105529785,8.128998,1
1840,4.962478599999999,0.16299438,8.115829,1
1841,5.0019836,0.1510315,8.046402,1
1842,5.0570374000000005,0.16539001,8.021255499999999,1
1843,5.055847,0.15342712,7.970978,1
1844,5.043869,0.16299438,8.008087,1
1845,4.9935913,0.20010376,8.020064999999999,1
1846,4.980423,0.21806335,8.072739,1
1847,4.9385376,0.24440002,8.047592,1
1848,4.951706,0.26115417,8.084702,1
1849,4.963669,0.27552795,8.070343,1
1850,4.9576874,0.28509520000000005,8.096680000000001,1
1851,4.9385376,0.28271484,8.073929,1
1852,4.928955,0.23602295,8.081116,1
1853,4.9445190000000006,0.24919128,8.059569999999999,1
1854,4.975647,0.19891357,8.094284,1
1855,5.004364,0.21087646,8.039214999999999,1
1856,5.0378875999999995,0.17855835,8.030838000000001,1
1857,5.0546417,0.18933105,8.004501,1
1858,5.0175323,0.14624023,8.038025,1
1859,5.031905999999999,0.14263916,8.082305999999999,1
1860,5.0223236,0.14743042,8.058365,1
1861,4.972046,0.14503479,8.077515,1
1862,4.9109955,0.1725769,8.087097,1
1863,4.877472,0.21087646,8.186461999999999,1
1864,4.8858643,0.23841858,8.125411999999999,1
1865,4.956482,0.22525024,8.108642999999999,1
1866,4.995987,0.24919128,8.061966,1
1867,5.0007779999999995,0.22764587,8.065552,1
1868,4.9864197,0.23841858,8.051193,1
1869,4.975647,0.22764587,8.065552,1
1870,4.9313507,0.21806335,8.065552,1
1871,4.9540863,0.23841858,8.041611,1
1872,4.9947968000000005,0.2240448,8.103850999999999,1
1873,4.956482,0.20010376,8.105057,1
1874,4.960083,0.20370483,8.123016,1
1875,4.920578,0.22764587,8.134979,1
1876,4.9576874,0.23960876,8.072739,1
1877,4.948105,0.20249939,8.114639,1
1878,4.9074097000000005,0.21806335,8.111038,1
1879,4.9109955,0.1797638,8.09787,1
1880,4.896637,0.21566772,8.088303,1
1881,4.914581299999999,0.19172668,8.067947,1
1882,4.933746299999999,0.22525024,8.114639,1
1883,4.9445190000000006,0.23960876,8.096680000000001,1
1884,4.939728,0.1725769,8.106247,1
1885,4.9265594,0.18574524,8.091888,1
1886,4.936142,0.19172668,8.091888,1
1887,4.906204,0.18814087,8.072739,1
1888,4.88945,0.23960876,8.143355999999999,1
1889,4.8918457,0.20968628,8.113434,1
1890,4.901413,0.20610046,8.143355999999999,1
1891,4.9109955,0.17018127,8.170898,1
1892,4.8798676,0.1797638,8.133789,1
1893,4.8858643,0.22164917,8.148147999999999,1
1894,4.834381,0.21087646,8.15773,1
1895,4.8283997,0.21087646,8.180466000000001,1
1896,4.8918457,0.1797638,8.164916999999999,1
1897,4.919372599999999,0.17497253,8.102661,1
1898,4.853530999999999,0.18334961,8.180466000000001,1
1899,4.8152313,0.19651794,8.203217,1
1900,4.799667400000001,0.24679565,8.2187805,1
1901,4.7972717000000005,0.22764587,8.187653,1
1902,4.785309,0.19891357,8.193634,1
1903,4.7769165000000005,0.23123169,8.178085000000001,1
1904,4.7900849999999995,0.22045898,8.191253999999999,1
1905,4.778122,0.20968628,8.17688,1
1906,4.8164215,0.20489502,8.179275500000001,1
1907,4.824798599999999,0.21566772,8.190047999999999,1
1908,4.787689,0.20729065,8.204422000000001,1
1909,4.7733307,0.19293213,8.203217,1
1910,4.8020629999999995,0.1905365,8.212799,1
1911,4.784103400000001,0.1953125,8.208008,1
1912,4.738617,0.1797638,8.192444,1
1913,4.706299,0.21566772,8.246307,1
1914,4.737411499999999,0.20610046,8.242722,1
1915,4.732635500000001,0.2132721,8.197235000000001,1
1916,4.7445984,0.21208191,8.242722,1
1917,4.713470500000001,0.16539001,8.197235000000001,1
1918,4.702697799999999,0.15342712,8.2547,1
1919,4.7122803,0.15461731,8.308563000000001,1
1920,4.699112,0.18814087,8.306168,1
1921,4.721863,0.15820313,8.273849499999999,1
1922,4.7314300000000005,0.19891357,8.290604,1
1923,4.7206573,0.19412231,8.252303999999999,1
1924,4.6775665,0.22644043,8.306168,1
1925,4.6584015,0.21566772,8.271453999999999,1
1926,4.642853,0.21687317,8.259476,1
1927,4.676361,0.19293213,8.252303999999999,1
1928,4.666794,0.20130920000000002,8.295395,1
1929,4.7086945,0.24440002,8.284622,1
1930,4.7206573,0.22285461,8.273849499999999,1
1931,4.695526,0.18574524,8.269058,1
1932,4.690735,0.14624023,8.294205,1
1933,4.7122803,0.16778564,8.285812,1
1934,4.664398,0.17018127,8.291808999999999,1
1935,4.6212919999999995,0.18574524,8.309753,1
1936,4.627289,0.20848083,8.369614,1
1937,4.5602417,0.16659546,8.370819000000001,1
1938,4.585388,0.21087646,8.301376,1
1939,4.648834,0.19770813,8.25708,1
1940,4.6548157,0.20249939,8.285812,1
1941,4.6105194,0.20610046,8.270247999999999,1
1942,4.609329,0.20249939,8.281036,1
1943,4.642853,0.21087646,8.288208000000001,1
1944,4.659607,0.20489502,8.275039999999999,1
1945,4.6775665,0.16897583,8.291808999999999,1
1946,4.5985565,0.17497253,8.266663000000001,1
1947,4.6332703,0.20968628,8.287018,1
1948,4.5937653,0.19293213,8.307373,1
1949,4.5937653,0.18693542,8.35405,1
1950,4.5901794,0.17616272,8.31575,1
1951,4.57222,0.18814087,8.331314,1
1952,4.594955400000001,0.1845398,8.352859500000001,1
1953,4.592575,0.20130920000000002,8.308563000000001,1
1954,4.6057434,0.17736816,8.308563000000001,1
1955,4.616516000000001,0.16539001,8.300186,1
1956,4.6236877,0.18574524,8.314544999999999,1
1957,4.6284790000000005,0.18933105,8.265472,1
1958,4.63208,0.2192688,8.285812,1
1959,4.6296844,0.21087646,8.287018,1
1960,4.634460400000001,0.18933105,8.288208000000001,1
1961,4.640457,0.20010376,8.314544999999999,1
1962,4.6105194,0.19412231,8.294205,1
1963,4.5841827,0.18095398,8.321732,1
1964,4.617706299999999,0.19891357,8.291808999999999,1
1965,4.6009519999999995,0.15342712,8.326523,1
1966,4.647629,0.17376709,8.342087,1
1967,4.636856,0.18574524,8.325317,1
1968,4.652419999999999,0.17376709,8.271453999999999,1
1969,4.6548157,0.1953125,8.313354499999999,1
1970,4.679962000000001,0.20848083,8.295395,1
1971,4.701507599999999,0.18933105,8.259476,1
1972,4.735016000000001,0.1797638,8.235535,1
1973,4.714676,0.16778564,8.269058,1
1974,4.6931305,0.20130920000000002,8.267868,1
1975,4.627289,0.19651794,8.355255,1
1976,4.5434875,0.1953125,8.380386,1
1977,4.5123596,0.21566772,8.346863,1
1978,4.458496,0.25277710000000003,8.307373,1
1979,4.4285583,0.22883606,8.31575,1
1980,4.4249725,0.15580750000000002,8.321732,1
1981,4.453705,0.23841858,8.387573,1
1982,4.4716644,0.20729065,8.427078,1
1983,4.548279,0.1845398,8.388763,1
1984,4.6021423,0.16897583,8.357650999999999,1
1985,4.6141205,0.16419983,8.377991,1
1986,4.57341,0.17616272,8.295395,1
1987,4.527923599999999,0.14743042,8.370819000000001,1
1988,4.5470734,0.14743042,8.327713000000001,1
1989,4.5446777,0.17616272,8.342087,1
1990,4.550674400000001,0.1725769,8.352859500000001,1
1991,4.549469,0.17018127,8.340881,1
1992,4.5470734,0.22045898,8.328918,1
1993,4.5255279999999996,0.24320984,8.356444999999999,1
1994,4.569824,0.23362732,8.316939999999999,1
1995,4.6105194,0.20489502,8.348068,1
1996,4.6189117,0.22164917,8.333694,1
1997,4.6009519999999995,0.20968628,8.324127,1
1998,4.5758057,0.22164917,8.363632,1
1999,4.5901794,0.20729065,8.31575,1
2000,4.6153107,0.16539001,8.296585,1
2001,4.6212919999999995,0.2132721,8.332504,1
2002,4.599746700000001,0.17736816,8.278641,1
2003,4.5841827,0.14982605,8.314544999999999,1
2004,4.609329,0.1905365,8.310959,1
2005,4.6296844,0.19651794,8.292999,1
2006,4.6236877,0.20968628,8.328918,1
2007,4.6009519999999995,0.17736816,8.298981,1
2008,4.636856,0.20968628,8.273849499999999,1
2009,4.65123,0.16059875,8.270247999999999,1
2010,4.642853,0.18214417,8.275039999999999,1
2011,4.679962000000001,0.17855835,8.307373,1
2012,4.7422028,0.1725769,8.261871000000001,1
2013,4.7098846,0.17855835,8.205612,1
2014,4.652419999999999,0.20249939,8.271453999999999,1
2015,4.6021423,0.20729065,8.333694,1
2016,4.6607970000000005,0.23841858,8.296585,1
2017,4.6943207000000005,0.24200439999999998,8.235535,1
2018,4.683548,0.2132721,8.249908,1
2019,4.6931305,0.1510315,8.255889999999999,1
2020,4.726639,0.17497253,8.172089,1
2021,4.723053,0.21687317,8.199631,1
2022,4.73024,0.23123169,8.251099,1
2023,4.737411499999999,0.16659546,8.219971000000001,1
2024,4.729034400000001,0.18693542,8.197235000000001,1
2025,4.781708,0.17855835,8.222366000000001,1
2026,4.7685394,0.14863586,8.240326,1
2027,4.746994,0.14982605,8.270247999999999,1
2028,4.7769165000000005,0.20010376,8.208008,1
2029,4.7912903,0.21687317,8.203217,1
2030,4.821212999999999,0.22285461,8.202026,1
2031,4.814026,0.20130920000000002,8.154144,1
2032,4.833191,0.14863586,8.150542999999999,1
2033,4.8319855,0.18095398,8.120621,1
2034,4.841568,0.1953125,8.186461999999999,1
2035,4.881073000000001,0.20489502,8.173294,1
2036,4.878677400000001,0.18933105,8.149353,1
2037,4.8643035999999995,0.19293213,8.126602,1
2038,4.8236084,0.1905365,8.155334,1
2039,4.8643035999999995,0.19172668,8.142166,1
2040,4.8355865,0.19891357,8.145752,1
2041,4.851135299999999,0.19770813,8.15773,1
2042,4.824798599999999,0.18574524,8.138580000000001,1
2043,4.848755000000001,0.14144897,8.151749,1
2044,4.860718,0.18574524,8.124207,1
2045,4.848755000000001,0.1905365,8.152939,1
2046,4.8870544,0.1905365,8.150542999999999,1
2047,4.858322,0.19172668,8.148147999999999,1
2048,4.849945,0.19891357,8.111038,1
2049,4.865508999999999,0.19651794,8.100265499999999,1
2050,4.858322,0.18693542,8.187653,1
2051,4.873886,0.18814087,8.172089,1
2052,4.9086,0.16778564,8.138580000000001,1
2053,4.848755000000001,0.19770813,8.160126,1
2054,4.8128357,0.22644043,8.182861,1
2055,4.8152313,0.22285461,8.216385,1
2056,4.873886,0.20249939,8.187653,1
2057,4.8870544,0.21087646,8.134979,1
2058,4.866699,0.18095398,8.134979,1
2059,4.896637,0.1953125,8.131393,1
2060,4.8631134000000005,0.21087646,8.137375,1
2061,4.851135299999999,0.1845398,8.132584,1
2062,4.866699,0.1725769,8.17569,1
2063,4.866699,0.21566772,8.161316000000001,1
2064,4.8200226,0.2240448,8.190047999999999,1
2065,4.811630200000001,0.1953125,8.187653,1
2066,4.7900849999999995,0.2300415,8.213989,1
2067,4.814026,0.17137146,8.170898,1
2068,4.8403625,0.20968628,8.174484,1
2069,4.804458599999999,0.1845398,8.186461999999999,1
2070,4.8283997,0.16299438,8.199631,1
2071,4.8439635999999995,0.17616272,8.149353,1
2072,4.8403625,0.17736816,8.188858,1
2073,4.857132,0.17855835,8.152939,1
2074,4.8679046999999995,0.21087646,8.119415,1
2075,4.842758,0.18814087,8.163712,1
2076,4.853530999999999,0.21566772,8.17569,1
2077,4.870300299999999,0.23721313,8.151749,1
2078,4.8726959999999995,0.22883606,8.17569,1
2079,4.8283997,0.20489502,8.149353,1
2080,4.8463593000000005,0.22883606,8.168503,1
2081,4.8295900000000005,0.21087646,8.162521,1
2082,4.817627,0.26115417,8.174484,1
2083,4.8200226,0.2132721,8.166107,1
2084,4.869095,0.20249939,8.146957,1
2085,4.8236084,0.19172668,8.151749,1
2086,4.853530999999999,0.19172668,8.186461999999999,1
2087,4.8307953,0.2348175,8.167297,1
2088,4.8439635999999995,0.19412231,8.166107,1
2089,4.848755000000001,0.16299438,8.142166,1
2090,4.878677400000001,0.15580750000000002,8.156525,1
2091,4.8870544,0.17497253,8.169692999999999,1
2092,4.877472,0.18334961,8.137375,1
2093,4.81044,0.20489502,8.152939,1
2094,4.834381,0.19651794,8.173294,1
2095,4.814026,0.21566772,8.197235000000001,1
2096,4.786499,0.17376709,8.174484,1
2097,4.800857499999999,0.23960876,8.188858,1
2098,4.7805176,0.22285461,8.170898,1
2099,4.8307953,0.2240448,8.15773,1
2100,4.8367767,0.22164917,8.128998,1
2101,4.869095,0.19172668,8.142166,1
2102,4.793686,0.25756836,8.148147999999999,1
2103,4.711075,0.30784607,8.222366000000001,1
2104,4.622497599999999,0.22883606,8.309753,1
2105,4.644043,0.09715271,8.338486,1
2106,4.764953599999999,0.014556885,8.21759,1
2107,4.774521,-0.102752686,8.155334,1
2108,4.814026,-0.07641601599999999,8.216385,1
2109,4.9026184,0.09954834,8.126602,1
2110,5.086975,0.2240448,8.038025,1
2111,5.2066803,0.28509520000000005,7.993728599999999,1
2112,5.1635895,0.21087646,7.924286,1
2113,5.106125,0.1618042,7.8476715,1
2114,5.039093,0.19172668,7.869232000000001,1
2115,4.995987,0.34495544,7.911133,1
2116,4.9181824,0.5341034,8.009293,1
2117,4.921768,0.7795105,8.005692,1
2118,4.9696503,0.65859985,8.085907,1
2119,4.936142,0.49339294,8.090683,1
2120,4.88826,0.31982422,8.100265499999999,1
2121,5.030700700000001,0.093566895,8.064362,1
2122,5.3072357000000006,0.07081604,8.044006,1
2123,5.428146400000001,0.21208191,8.118225,1
2124,5.2797089999999995,0.27432249999999997,8.088303,1
2125,5.0414886,0.18334961,8.035629,1
2126,4.804458599999999,0.122299194,8.063156,1
2127,4.723053,0.110321045,8.09787,1
2128,4.7565764999999995,0.24798584,8.136185000000001,1
2129,4.8643035999999995,0.4191742,8.163712,1
2130,4.9505004999999995,0.48262024,8.091888,1
2131,4.9888153,0.32699585,8.020064999999999,1
2132,4.9505004999999995,0.13665771,8.091888,1
2133,4.865508999999999,0.100753784,8.174484,1
2134,4.821212999999999,0.0756073,8.202026,1
2135,4.822418,0.12948608,8.090683,1
2136,4.81044,0.21208191,8.093079,1
2137,4.834381,0.29348755,8.182861,1
2138,4.9098053,0.4084015,8.134979,1
2139,4.9732513,0.42515564,8.077515,1
2140,4.9696503,0.49220276,7.9386597000000005,1
2141,4.9385376,0.51374817,7.9649963,1
2142,4.8355865,0.44311523,8.063156,1
2143,4.7960815000000006,0.31503296,8.239136,1
2144,4.7254486,0.14863586,8.313354499999999,1
2145,4.682358,-0.06324768,8.458206,1
2146,4.737411499999999,-0.19613647,8.477356,1
2147,4.727844,-0.18894958,8.252303999999999,1
2148,4.63208,-0.22726439999999998,8.071533,1
2149,4.5985565,-0.112335205,8.215195,1
2150,4.634460400000001,0.040893555,8.476150500000001,1
2151,4.6296844,0.19412231,8.464188,1
2152,4.65123,0.21447754,8.35405,1
2153,4.695526,0.12948608,8.360031,1
2154,4.713470500000001,0.04808044400000001,8.386368,1
2155,4.642853,0.007369995,8.235535,1
2156,4.5674285999999995,-0.04649353,8.192444,1
2157,4.597351000000001,-0.014175415,8.180466000000001,1
2158,4.676361,0.036102295,8.23674,1
2159,4.779312,0.10433959999999999,8.248702999999999,1
2160,4.817627,0.23841858,8.188858,1
2161,4.851135299999999,0.32101440000000003,8.130188,1
2162,4.8355865,0.37487793,8.127808,1
2163,4.7960815000000006,0.37249756,8.108642999999999,1
2164,4.774521,0.34016418,8.19603,1
2165,4.764953599999999,0.33776855,8.199631,1
2166,4.799667400000001,0.33418274,8.225967,1
2167,4.7769165000000005,0.32580566,8.23793,1
2168,4.774521,0.2922821,8.213989,1
2169,4.7733307,0.1618042,8.191253999999999,1
2170,4.7805176,0.04208374,8.211594,1
2171,4.754181,-0.03691101,8.202026,1
2172,4.726639,-0.03691101,8.225967,1
2173,4.7039029999999995,0.02293396,8.260681,1
2174,4.714676,0.12348938,8.294205,1
2175,4.7098846,0.1330719,8.287018,1
2176,4.7050934,0.14025879,8.235535,1
2177,4.738617,0.07081604,8.248702999999999,1
2178,4.745804,0.033706665,8.230758999999999,1
2179,4.766144000000001,-0.00579834,8.225967,1
2180,4.80925,0.05406189,8.211594,1
2181,4.745804,0.07202148400000001,8.2343445,1
2182,4.717071499999999,0.20130920000000002,8.267868,1
2183,4.7434080000000005,0.24919128,8.247513,1
2184,4.7685394,0.24798584,8.187653,1
2185,4.7805176,0.22164917,8.206802,1
2186,4.7517853,0.20130920000000002,8.203217,1
2187,4.724243,0.16778564,8.172089,1
2188,4.723053,0.15580750000000002,8.162521,1
2189,4.7673492,0.13426208,8.180466000000001,1
2190,4.778122,0.16299438,8.213989,1
2191,4.7769165000000005,0.20489502,8.247513,1
2192,4.7434080000000005,0.17137146,8.253494,1
2193,4.723053,0.17376709,8.222366000000001,1
2194,4.6979065,0.09475708,8.239136,1
2195,4.6775665,0.05166626,8.263077000000001,1
2196,4.6943207000000005,0.019348145,8.193634,1
2197,4.723053,0.0013885498,8.170898,1
2198,4.764953599999999,0.04208374,8.245117,1
2199,4.7314300000000005,-0.006988525400000001,8.263077000000001,1
2200,4.7757263,-0.08001709,8.264267,1
2201,4.798477,-0.059661865,8.247513,1
2202,4.8798676,-0.026138306,8.263077000000001,1
2203,4.857132,0.107925415,8.25708,1
2204,4.811630200000001,0.30665588,8.223572,1
2205,4.817627,0.338974,8.221176,1
2206,4.8595276,0.32101440000000003,8.133789,1
2207,4.884659,0.29109192,8.027237,1
2208,4.8128357,0.2192688,8.060760499999999,1
2209,4.746994,0.24559021,8.131393,1
2210,4.6895294000000005,0.18574524,8.150542999999999,1
2211,4.7206573,0.20610046,8.188858,1
2212,4.758972,0.13665771,8.19603,1
2213,4.7050934,0.069625854,8.366028,1
2214,4.6141205,0.12588501,8.399536,1
2215,4.5590515,0.14982605,8.381592,1
2216,4.6284790000000005,0.12828064,8.292999,1
2217,4.73024,0.050476074,8.200821000000001,1
2218,4.821212999999999,0.028915405,8.202026,1
2219,4.8391724,-0.042907715,8.199631,1
2220,4.814026,-0.069244385,8.179275500000001,1
2221,4.754181,-0.14346313,8.138580000000001,1
2222,4.717071499999999,-0.08958435,8.253494,1
2223,4.787689,0.050476074,8.307373,1
2224,4.948105,0.19770813,8.307373,1
2225,5.035492,0.2132721,8.227158,1
2226,4.9732513,0.19412231,8.138580000000001,1
2227,4.9732513,0.17616272,8.072739,1
2228,4.9540863,0.119903564,8.004501,1
2229,4.8559265,0.07202148400000001,8.003296,1
2230,4.7757263,0.15222168,8.106247,1
2231,4.8068542,0.14743042,8.231949,1
2232,4.9038086,0.20249939,8.123016,1
2233,5.015152,0.36410522,8.033234,1
2234,5.0283203,0.35572815,8.048798,1
2235,5.0366974,0.2922821,8.065552,1
2236,5.152817,0.24200439999999998,8.023651,1
2237,5.2354126,0.26475525,7.949432400000001,1
2238,5.0546417,0.33299255,7.850067,1
2239,5.0654297,0.22045898,7.823730499999999,1
2240,5.150421,0.12348938,7.976959,1
2241,5.2282257,0.008575439,7.972183,1
2242,5.259353599999999,0.014556885,7.9685820000000005,1
2243,5.1803436,0.03970337,7.9817505,1
2244,5.059433,0.14025879,8.131393,1
2245,4.961273,0.19651794,8.187653,1
2246,4.9086,0.24320984,8.154144,1
2247,4.8906403,0.30784607,8.087097,1
2248,4.9038086,0.35572815,8.049988,1
2249,4.933746299999999,0.3964386,8.076324000000001,1
2250,5.031905999999999,0.4359436,8.052383,1
2251,5.0881653,0.45509338,8.003296,1
2252,5.086975,0.34854126,7.982956,1
2253,5.0534514999999995,0.20370483,7.943451,1
2254,5.015152,0.07321167,7.9207,1
2255,5.095352,0.019348145,7.9649963,1
2256,5.186325,0.021743774,8.051193,1
2257,5.176758,0.03012085,7.927886999999999,1
2258,5.194717400000001,0.091171265,7.8991547,1
2259,5.197098,0.09475708,7.895569,1
2260,5.14682,0.019348145,7.865631,1
2261,5.04747,0.013366699,7.868026700000001,1
2262,5.029510500000001,0.052871704000000005,7.951828,1
2263,5.004364,0.09475708,7.9961243,1
2264,4.877472,0.16778564,8.119415,1
2265,4.9552917,0.13665771,8.077515,1
2266,5.0450745,0.14025879,8.163712,1
2267,5.1204834,0.107925415,8.115829,1
2268,5.194717400000001,0.15820313,8.094284,1
2269,5.174362,0.19770813,8.057175,1
2270,5.150421,0.27552795,7.967392,1
2271,5.12648,0.33537292,7.8824005,1
2272,5.122879,0.39164734,7.8871765,1
2273,5.195907599999999,0.45388794,7.8824005,1
2274,5.2797089999999995,0.48501587,7.8476715,1
2275,5.326385500000001,0.45988464,7.822540299999999,1
2276,5.22583,0.34616090000000005,7.7878264999999995,1
2277,5.128875700000001,0.27192688,7.884796000000001,1
2278,5.023529,0.23721313,7.9578093999999995,1
2279,4.999588,0.22285461,8.054779,1
2280,4.995987,0.22525024,8.021255499999999,1
2281,4.9780273,0.23123169,8.022461,1
2282,5.0259247,0.28988647,8.083511,1
2283,5.0857697,0.36531067,8.028442,1
2284,5.165985,0.3796692,8.066742,1
2285,5.231827,0.39762878,8.029633,1
2286,5.272522,0.4084015,7.9422455,1
2287,5.289276,0.38327026,7.921905499999999,1
2288,5.243789700000001,0.30305479999999996,7.8428955,1
2289,5.1240845,0.30065918,7.814163000000001,1
2290,5.0330962999999995,0.23721313,7.8943634000000005,1
2291,4.952896,0.17137146,7.984146000000001,1
2292,4.972046,0.11631775,8.011688000000001,1
2293,4.975647,0.100753784,8.01886,1
2294,5.023529,0.20249939,8.054779,1
2295,5.059433,0.14982605,8.003296,1
2296,5.1049347,0.14743042,7.984146000000001,1
2297,5.14682,0.12709045,7.991333,1
2298,5.131271400000001,0.12469482400000001,8.051193,1
2299,5.0223236,0.20130920000000002,7.9865417,1
2300,4.984024,0.24200439999999998,7.932678,1
2301,4.9696503,0.2815094,7.951828,1
2302,5.019928,0.2635498,8.005692,1
2303,5.0211334,0.28271484,7.9853516,1
2304,5.080978400000001,0.3102417,7.9614104999999995,1
2305,5.119293,0.27911377,7.988937400000001,1
2306,5.174362,0.2815094,8.002106,1
2307,5.2749176,0.2707367,7.969787599999999,1
2308,5.2773129999999995,0.25875854,7.944641000000001,1
2309,5.192322,0.25277710000000003,7.9470367,1
2310,5.0654297,0.2132721,7.99852,1
2311,4.9971924,0.23841858,8.073929,1
2312,4.9588776,0.25038147,8.052383,1
2313,4.906204,0.22285461,8.070343,1
2314,4.9433136,0.2348175,8.073929,1
2315,4.9349365,0.23602295,8.07991,1
2316,4.939728,0.25038147,8.07872,1
2317,4.914581299999999,0.24559021,8.088303,1
2318,4.9708557,0.22285461,8.123016,1
2319,4.998382599999999,0.24081421,8.063156,1
2320,5.0127562999999995,0.23841858,8.071533,1
2321,5.0330962999999995,0.25038147,8.070343,1
2322,5.019928,0.24200439999999998,8.048798,1
2323,5.004364,0.24320984,8.048798,1
2324,4.985214,0.19891357,8.020064999999999,1
2325,4.9900055,0.2132721,8.102661,1
2326,5.0067596,0.26834106,8.131393,1
2327,5.029510500000001,0.25756836,8.046402,1
2328,5.0546417,0.25517273,8.053574000000001,1
2329,5.0642242,0.2707367,8.047592,1
2330,5.023529,0.24919128,8.038025,1
2331,5.0127562999999995,0.2635498,8.061966,1
2332,4.9696503,0.24798584,8.066742,1
2333,4.9385376,0.24679565,8.067947,1
2334,4.9109955,0.23841858,8.089493,1
2335,4.919372599999999,0.20968628,8.096680000000001,1
2336,4.913391000000001,0.24081421,8.111038,1
2337,4.88945,0.24440002,8.15773,1
2338,4.8954315,0.26115417,8.15892,1
2339,4.865508999999999,0.22525024,8.126602,1
2340,4.8954315,0.22883606,8.094284,1
2341,4.9301453,0.22285461,8.106247,1
2342,4.951706,0.23602295,8.069138,1
2343,4.9911957000000005,0.22764587,8.090683,1
2344,4.9971924,0.23721313,8.07872,1
2345,5.0175323,0.24798584,8.040405,1
2346,4.942123400000001,0.24081421,8.071533,1
2347,4.9122010000000005,0.25038147,8.090683,1
2348,4.8726959999999995,0.21806335,8.107452,1
2349,4.8643035999999995,0.2300415,8.169692999999999,1
2350,4.878677400000001,0.2695465,8.146957,1
2351,4.893036,0.27432249999999997,8.106247,1
2352,4.896637,0.24919128,8.090683,1
2353,4.8714905,0.23960876,8.081116,1
2354,4.9086,0.20130920000000002,8.101471,1
2355,4.9038086,0.23960876,8.134979,1
2356,4.9349365,0.22883606,8.130188,1
2357,4.9109955,0.21806335,8.096680000000001,1
2358,4.9181824,0.16778564,8.069138,1
2359,4.9109955,0.24559021,8.105057,1
2360,4.9229736,0.26235962,8.144561999999999,1
2361,4.9433136,0.24919128,8.100265499999999,1
2362,4.933746299999999,0.24320984,8.099075,1
2363,4.9098053,0.22285461,8.139770500000001,1
2364,4.946914700000001,0.20489502,8.123016,1
2365,4.9505004999999995,0.20848083,8.067947,1
2366,4.9540863,0.21566772,8.118225,1
2367,4.981628400000001,0.29467773,8.136185000000001,1
2368,4.9253693,0.24559021,8.11702,1
2369,4.8439635999999995,0.21566772,8.138580000000001,1
2370,4.800857499999999,0.23242188,8.113434,1
2371,4.8164215,0.20370483,8.115829,1
2372,4.8559265,0.18334961,8.099075,1
2373,4.881073000000001,0.24798584,8.096680000000001,1
2374,4.920578,0.24559021,8.144561999999999,1
2375,4.9229736,0.24798584,8.133789,1
2376,4.916976999999999,0.24559021,8.142166,1
2377,4.851135299999999,0.24200439999999998,8.148147999999999,1
2378,4.8762817,0.25517273,8.156525,1
2379,4.893036,0.21208191,8.112244,1
2380,4.9026184,0.23242188,8.087097,1
2381,4.924164,0.2348175,8.131393,1
2382,4.942123400000001,0.23242188,8.120621,1
2383,4.939728,0.259964,8.120621,1
2384,4.9050139999999995,0.22644043,8.11702,1
2385,4.857132,0.25277710000000003,8.125411999999999,1
2386,4.869095,0.25398254,8.15892,1
2387,4.8439635999999995,0.30426025,8.182861,1
2388,4.875091599999999,0.29348755,8.136185000000001,1
2389,4.9038086,0.27313232,8.106247,1
2390,4.9122010000000005,0.23841858,8.076324000000001,1
2391,4.939728,0.23602295,8.133789,1
2392,4.9122010000000005,0.20610046,8.112244,1
2393,4.899032599999999,0.22764587,8.072739,1
2394,4.9074097000000005,0.22644043,8.139770500000001,1
2395,4.9253693,0.20729065,8.11702,1
2396,4.8858643,0.20249939,8.115829,1
2397,4.8858643,0.22883606,8.107452,1
2398,4.916976999999999,0.21687317,8.133789,1
2399,4.8726959999999995,0.27911377,8.168503,1
2400,4.8463593000000005,0.2300415,8.143355999999999,1
2401,4.9026184,0.25637817,8.166107,1
2402,4.8954315,0.2707367,8.138580000000001,1
2403,4.8942413,0.2515869,8.119415,1
2404,4.8858643,0.25398254,8.07872,1
2405,4.9026184,0.2300415,8.115829,1
2406,4.9074097000000005,0.22644043,8.134979,1
2407,4.8978269999999995,0.2300415,8.103850999999999,1
2408,4.88945,0.2192688,8.143355999999999,1
2409,4.9122010000000005,0.2240448,8.152939,1
2410,4.857132,0.22045898,8.149353,1
2411,4.8679046999999995,0.24081421,8.155334,1
2412,4.8906403,0.259964,8.132584,1
2413,4.866699,0.23362732,8.150542999999999,1
2414,4.8858643,0.21447754,8.150542999999999,1
2415,4.8870544,0.25517273,8.137375,1
2416,4.8595276,0.25277710000000003,8.152939,1
2417,4.866699,0.24798584,8.134979,1
2418,4.900223,0.24440002,8.118225,1
2419,4.8918457,0.22764587,8.095474000000001,1
2420,4.8679046999999995,0.21566772,8.072739,1
2421,4.914581299999999,0.23960876,8.09787,1
2422,4.940918,0.25517273,8.07991,1
2423,4.9277496,0.23841858,8.111038,1
2424,4.8679046999999995,0.28749084,8.109848,1
2425,4.8295900000000005,0.2707367,8.139770500000001,1
2426,4.847549400000001,0.23721313,8.154144,1
2427,4.849945,0.23602295,8.137375,1
2428,4.882263,0.22883606,8.112244,1
2429,4.866699,0.26235962,8.112244,1
2430,4.919372599999999,0.28630066,8.111038,1
2431,4.919372599999999,0.28869629999999996,8.087097,1
2432,4.914581299999999,0.25756836,8.07991,1
2433,4.9026184,0.24200439999999998,8.102661,1
2434,4.9026184,0.23242188,8.123016,1
2435,4.9038086,0.25756836,8.133789,1
2436,4.896637,0.22883606,8.133789,1
2437,4.847549400000001,0.2192688,8.173294,1
2438,4.893036,0.27911377,8.131393,1
2439,4.8906403,0.28509520000000005,8.151749,1
2440,4.8643035999999995,0.24798584,8.162521,1
2441,4.877472,0.22285461,8.126602,1
2442,4.919372599999999,0.21208191,8.105057,1
2443,4.9696503,0.21566772,8.120621,1
2444,4.9576874,0.22045898,8.083511,1
2445,4.962478599999999,0.20010376,8.082305999999999,1
2446,4.921768,0.18574524,8.093079,1
2447,4.899032599999999,0.20848083,8.100265499999999,1
2448,4.9074097000000005,0.22285461,8.138580000000001,1
2449,4.9277496,0.24081421,8.095474000000001,1
2450,4.9050139999999995,0.31263733,8.11702,1
2451,4.8870544,0.259964,8.095474000000001,1
2452,4.899032599999999,0.30784607,8.120621,1
2453,4.9098053,0.27792358,8.136185000000001,1
2454,4.913391000000001,0.29467773,8.095474000000001,1
2455,4.9433136,0.28630066,8.107452,1
2456,4.9098053,0.26594543,8.076324000000001,1
2457,4.933746299999999,0.26715088,8.107452,1
2458,4.9313507,0.24320984,8.065552,1
2459,4.980423,0.21806335,8.058365,1
2460,4.982818599999999,0.22164917,8.041611,1
2461,4.961273,0.21687317,8.11702,1
2462,4.9672545999999995,0.19293213,8.087097,1
2463,4.980423,0.21687317,8.054779,1
2464,4.9109955,0.2192688,8.067947,1
2465,4.884659,0.23362732,8.169692999999999,1
2466,4.8906403,0.23721313,8.146957,1
2467,4.945709,0.28630066,8.09787,1
2468,4.968459999999999,0.2922821,8.059569999999999,1
2469,5.035492,0.25517273,8.024857,1
2470,4.999588,0.25756836,8.027237,1
2471,4.9864197,0.19293213,8.026047,1
2472,5.0019836,0.20610046,8.039214999999999,1
2473,5.018738,0.25517273,8.070343,1
2474,4.9971924,0.25637817,8.106247,1
2475,5.011551,0.25756836,8.017669999999999,1
2476,5.0067596,0.24559021,8.061966,1
2477,4.98761,0.22164917,8.070343,1
2478,4.9947968000000005,0.24798584,8.045197,1
2479,5.003174,0.26834106,8.053574000000001,1
2480,5.0498657,0.23602295,8.049988,1
2481,5.071411,0.25038147,8.002106,1
2482,5.0642242,0.23362732,7.9853516,1
2483,5.076202400000001,0.25398254,7.9614104999999995,1
2484,5.06781,0.23602295,8.020064999999999,1
2485,5.0726013,0.22644043,8.015274,1
2486,5.0702057,0.22285461,7.9817505,1
2487,5.059433,0.22525024,8.011688000000001,1
2488,5.061828599999999,0.21806335,8.004501,1
2489,5.102539,0.23123169,8.01886,1
2490,5.1324615,0.25038147,7.970978,1
2491,5.1336517,0.24679565,7.9733734,1
2492,5.1492157,0.24081421,7.944641000000001,1
2493,5.128875700000001,0.26115417,7.976959,1
2494,5.134857,0.21687317,7.974578999999999,1
2495,5.1647796999999995,0.22525024,7.9314729999999996,1
2496,5.1121063,0.20848083,7.962600699999999,1
2497,5.027115,0.24320984,7.9901276,1
2498,4.9935913,0.27432249999999997,8.012878,1
2499,4.999588,0.28271484,8.082305999999999,1
2500,4.999588,0.25637817,8.057175,1
2501,5.013946499999999,0.28988647,8.095474000000001,1
2502,5.0402830000000005,0.2922821,8.083511,1
2503,4.963669,0.25637817,8.049988,1
2504,4.920578,0.2803192,8.087097,1
2505,4.9074097000000005,0.27552795,8.07991,1
2506,4.945709,0.25038147,8.077515,1
2507,4.979233,0.24320984,8.039214999999999,1
2508,5.007965,0.20489502,8.059569999999999,1
2509,5.007965,0.23960876,8.032028,1
2510,4.961273,0.25756836,8.004501,1
2511,4.900223,0.25756836,8.022461,1
2512,4.972046,0.25038147,8.075134,1
2513,5.0486603,0.23123169,8.127808,1
2514,5.107315,0.18933105,8.090683,1
2515,5.027115,0.12588501,8.065552,1
2516,4.968459999999999,0.088775635,8.042800999999999,1
2517,4.9708557,0.16778564,8.008087,1
2518,5.0462646,0.23123169,7.988937400000001,1
2519,5.078598,0.33537292,7.950622599999999,1
2520,5.0690155,0.41319275,7.932678,1
2521,5.0893707,0.37487793,7.9362639999999995,1
2522,5.079788,0.3497467,7.974578999999999,1
2523,5.0462646,0.31982422,8.033234,1
2524,5.0570374000000005,0.26115417,8.081116,1
2525,5.0546417,0.2348175,8.064362,1
2526,5.055847,0.21687317,8.063156,1
2527,5.061828599999999,0.1797638,8.029633,1
2528,5.061828599999999,0.19651794,8.029633,1
2529,5.0726013,0.2132721,8.064362,1
2530,5.076202400000001,0.20370483,7.99852,1
2531,5.0857697,0.18095398,8.01886,1
2532,5.0773926,0.14863586,8.009293,1
2533,4.9301453,0.17736816,8.066742,1
2534,4.875091599999999,0.23721313,8.121811,1
2535,4.88945,0.26475525,8.09787,1
2536,4.928955,0.27552795,8.083511,1
2537,4.9672545999999995,0.31742859999999995,8.045197,1
2538,4.9672545999999995,0.27313232,8.082305999999999,1
2539,4.896637,0.2922821,8.142166,1
2540,4.921768,0.27192688,8.127808,1
2541,4.9074097000000005,0.2922821,8.09787,1
2542,4.866699,0.2300415,8.125411999999999,1
2543,4.848755000000001,0.20370483,8.166107,1
2544,4.870300299999999,0.23242188,8.149353,1
2545,4.88826,0.25756836,8.136185000000001,1
2546,4.9349365,0.29109192,8.061966,1
2547,4.975647,0.30784607,8.021255499999999,1
2548,4.9732513,0.2515869,8.039214999999999,1
2549,4.972046,0.21447754,8.058365,1
2550,4.9038086,0.16659546,8.103850999999999,1
2551,4.873886,0.1510315,8.144561999999999,1
2552,4.7757263,0.11392212,8.198425,1
2553,4.7493896,0.13067627,8.205612,1
2554,4.7733307,0.1725769,8.204422000000001,1
2555,4.8547363,0.2240448,8.184067,1
2556,4.8906403,0.23362732,8.166107,1
2557,4.9253693,0.27671814,8.123016,1
2558,4.999588,0.26235962,8.07872,1
2559,4.948105,0.28390503,8.064362,1
2560,4.937332,0.2635498,8.094284,1
2561,4.88945,0.24440002,8.128998,1
2562,4.842758,0.2240448,8.186461999999999,1
2563,4.787689,0.20489502,8.164916999999999,1
2564,4.784103400000001,0.21687317,8.231949,1
2565,4.7900849999999995,0.20610046,8.231949,1
2566,4.811630200000001,0.21687317,8.211594,1
2567,4.861923,0.20130920000000002,8.190047999999999,1
2568,4.860718,0.22764587,8.151749,1
2569,4.8523407,0.2348175,8.130188,1
2570,4.8762817,0.21447754,8.15773,1
2571,4.900223,0.18334961,8.137375,1
2572,4.875091599999999,0.17855835,8.136185000000001,1
2573,4.861923,0.20489502,8.142166,1
2574,4.824798599999999,0.20848083,8.124207,1
2575,4.853530999999999,0.20848083,8.138580000000001,1
2576,4.8942413,0.19651794,8.127808,1
2577,4.936142,0.22525024,8.121811,1
2578,4.906204,0.20010376,8.114639,1
2579,4.937332,0.23242188,8.132584,1
2580,4.857132,0.22764587,8.118225,1
2581,4.7912903,0.20489502,8.173294,1
2582,4.81044,0.20968628,8.215195,1
2583,4.818817,0.21447754,8.179275500000001,1
2584,4.833191,0.23123169,8.192444,1
2585,4.8595276,0.24559021,8.136185000000001,1
2586,4.857132,0.23242188,8.09787,1
2587,4.849945,0.20968628,8.123016,1
2588,4.848755000000001,0.17137146,8.121811,1
2589,4.878677400000001,0.1845398,8.138580000000001,1
2590,4.9122010000000005,0.18933105,8.124207,1
2591,4.881073000000001,0.21208191,8.188858,1
2592,4.8595276,0.21566772,8.15892,1
2593,4.8068542,0.1845398,8.151749,1
2594,4.8439635999999995,0.20729065,8.182861,1
2595,4.8367767,0.21447754,8.152939,1
2596,4.861923,0.23841858,8.155334,1
2597,4.882263,0.24559021,8.150542999999999,1
2598,4.860718,0.23721313,8.142166,1
2599,4.8679046999999995,0.2132721,8.15892,1
2600,4.861923,0.24679565,8.143355999999999,1
2601,4.9026184,0.23721313,8.137375,1
2602,4.8942413,0.20848083,8.126602,1
2603,4.866699,0.1845398,8.112244,1
2604,4.873886,0.20968628,8.140976,1
2605,4.8523407,0.20249939,8.172089,1
2606,4.8834686,0.20610046,8.123016,1
2607,4.8679046999999995,0.18693542,8.151749,1
2608,4.9109955,0.21566772,8.128998,1
2609,4.8643035999999995,0.2348175,8.168503,1
2610,4.88945,0.2348175,8.154144,1
2611,4.8942413,0.22764587,8.125411999999999,1
2612,4.8978269999999995,0.20610046,8.144561999999999,1
2613,4.8942413,0.24320984,8.093079,1
2614,4.8679046999999995,0.24320984,8.163712,1
2615,4.875091599999999,0.25637817,8.164916999999999,1
2616,4.8403625,0.2300415,8.136185000000001,1
2617,4.860718,0.1905365,8.085907,1
2618,4.8762817,0.20729065,8.125411999999999,1
2619,4.9313507,0.23960876,8.130188,1
2620,4.9576874,0.25756836,8.115829,1
2621,4.899032599999999,0.2240448,8.112244,1
2622,4.870300299999999,0.22644043,8.128998,1
2623,4.858322,0.20729065,8.197235000000001,1
2624,4.8523407,0.20610046,8.169692999999999,1
2625,4.8679046999999995,0.2300415,8.150542999999999,1
2626,4.896637,0.22045898,8.096680000000001,1
2627,4.901413,0.23123169,8.111038,1
2628,4.9157867,0.22764587,8.087097,1
2629,4.88826,0.24081421,8.115829,1
2630,4.893036,0.2132721,8.152939,1
2631,4.860718,0.23602295,8.156525,1
2632,4.8798676,0.20729065,8.113434,1
2633,4.860718,0.2132721,8.150542999999999,1
2634,4.882263,0.20729065,8.145752,1
2635,4.873886,0.22164917,8.149353,1
2636,4.9098053,0.21566772,8.120621,1
2637,4.884659,0.24320984,8.139770500000001,1
2638,4.928955,0.25756836,8.103850999999999,1
2639,4.920578,0.259964,8.114639,1
2640,4.9253693,0.17018127,8.073929,1
2641,4.979233,0.16299438,8.065552,1
2642,4.9325410000000005,0.17616272,8.084702,1
2643,4.9050139999999995,0.2132721,8.138580000000001,1
2644,4.914581299999999,0.20249939,8.119415,1
2645,4.9098053,0.22525024,8.088303,1
2646,4.942123400000001,0.20968628,8.101471,1
2647,4.9349365,0.1905365,8.085907,1
2648,4.942123400000001,0.20370483,8.077515,1
2649,4.899032599999999,0.20130920000000002,8.085907,1
2650,4.8978269999999995,0.20610046,8.152939,1
2651,4.9552917,0.22285461,8.113434,1
2652,4.964874299999999,0.24919128,8.106247,1
2653,4.980423,0.26834106,8.083511,1
2654,4.962478599999999,0.30065918,8.103850999999999,1
2655,4.948105,0.23362732,8.082305999999999,1
2656,4.995987,0.18574524,8.057175,1
2657,5.0283203,0.16659546,8.01886,1
2658,5.074997,0.16059875,7.9961243,1
2659,5.1157074,0.16897583,7.979355,1
2660,5.1049347,0.2192688,7.93985,1
2661,5.119293,0.18693542,8.029633,1
2662,5.1252747,0.17855835,7.979355,1
2663,5.1157074,0.17018127,7.9865417,1
2664,5.086975,0.1797638,8.003296,1
2665,5.0283203,0.22764587,8.045197,1
2666,5.016342,0.20848083,8.040405,1
2667,5.078598,0.25277710000000003,8.024857,1
2668,5.131271400000001,0.20729065,7.959014999999999,1
2669,5.1396484000000004,0.23602295,7.911133,1
2670,5.162383999999999,0.20968628,7.918304400000001,1
2671,5.1121063,0.23602295,7.909927400000001,1
2672,5.090561,0.27313232,7.921905499999999,1
2673,5.1097107,0.29826355,7.921905499999999,1
2674,5.1396484000000004,0.25637817,7.9566193,1
2675,5.170761,0.25398254,7.9147186000000005,1
2676,5.167175299999999,0.1953125,7.9087369999999995,1
2677,5.161194,0.22045898,7.9470367,1
2678,5.174362,0.20130920000000002,7.93985,1
2679,5.195907599999999,0.2300415,7.937454,1
2680,5.195907599999999,0.20249939,7.9027405,1
2681,5.152817,0.21806335,7.951828,1
2682,5.144424400000001,0.20729065,7.9865417,1
2683,5.118103,0.19412231,7.93985,1
2684,5.1324615,0.1905365,7.944641000000001,1
2685,5.1396484000000004,0.17855835,7.960205,1
2686,5.130066,0.1845398,7.954223599999999,1
2687,5.122879,0.24440002,7.966186500000001,1
2688,5.101333599999999,0.24919128,7.9362639999999995,1
2689,5.0845795,0.24919128,7.935074,1
2690,5.1133120000000005,0.27192688,7.924286,1
2691,5.101333599999999,0.26834106,8.017669999999999,1
2692,5.1276703,0.25398254,7.9781647,1
2693,5.106125,0.24440002,7.951828,1
2694,5.114502,0.22164917,8.017669999999999,1
2695,5.192322,0.24081421,7.9757690000000006,1
2696,5.1683807,0.1905365,7.972183,1
2697,5.1827393,0.21566772,7.923095699999999,1
2698,5.167175299999999,0.19651794,7.951828,1
2699,5.119293,0.20370483,7.982956,1
2700,5.157593,0.22285461,7.9961243,1
2701,5.1887207,0.22164917,7.9314729999999996,1
2702,5.1731567,0.20610046,7.906341599999999,1
2703,5.0654297,0.23841858,8.003296,1
2704,5.027115,0.26834106,8.065552,1
2705,4.972046,0.24798584,8.041611,1
2706,4.963669,0.2815094,8.064362,1
2707,4.995987,0.24440002,8.081116,1
2708,5.0067596,0.22164917,8.036819,1
2709,5.0067596,0.2300415,8.059569999999999,1
2710,5.0211334,0.22164917,8.044006,1
2711,4.98761,0.22164917,8.054779,1
2712,4.9864197,0.20249939,8.036819,1
2713,5.035492,0.20249939,8.040405,1
2714,5.0055695,0.14263916,8.063156,1
2715,4.980423,0.1953125,8.108642999999999,1
2716,4.9696503,0.2132721,8.081116,1
2717,4.979233,0.24200439999999998,8.07872,1
2718,4.963669,0.23721313,8.093079,1
2719,4.979233,0.24798584,8.099075,1
2720,4.982818599999999,0.25517273,8.091888,1
2721,4.968459999999999,0.25398254,8.07872,1
2722,4.952896,0.2348175,8.067947,1
2723,4.964874299999999,0.24559021,8.106247,1
2724,4.968459999999999,0.2132721,8.070343,1
2725,4.9576874,0.24919128,8.071533,1
2726,4.992401,0.22045898,8.048798,1
2727,4.9900055,0.20370483,8.044006,1
2728,4.9732513,0.22164917,8.042800999999999,1
2729,5.024719,0.21806335,8.033234,1
2730,4.995987,0.17376709,8.024857,1
2731,5.0127562999999995,0.2192688,8.055969000000001,1
2732,4.972046,0.21806335,8.060760499999999,1
2733,4.963669,0.20968628,8.091888,1
2734,4.9349365,0.24440002,8.127808,1
2735,4.956482,0.24200439999999998,8.103850999999999,1
2736,4.9576874,0.2192688,8.071533,1
2737,4.9696503,0.22644043,8.040405,1
2738,4.972046,0.22045898,8.047592,1
2739,5.0019836,0.18933105,8.090683,1
2740,5.0343018,0.23841858,8.035629,1
2741,4.976837000000001,0.24679565,8.038025,1
2742,4.916976999999999,0.2515869,8.099075,1
2743,4.916976999999999,0.22285461,8.084702,1
2744,4.946914700000001,0.21208191,8.099075,1
2745,4.9588776,0.19891357,8.137375,1
2746,4.9576874,0.23721313,8.075134,1
2747,4.9708557,0.22164917,8.075134,1
2748,4.952896,0.21087646,8.029633,1
2749,4.9744415,0.20610046,8.010483,1
2750,4.9433136,0.18814087,8.106247,1
2751,5.0055695,0.22883606,8.081116,1
2752,4.995987,0.18334961,8.064362,1
2753,4.975647,0.20610046,8.076324000000001,1
2754,4.951706,0.2300415,8.099075,1
2755,4.921768,0.21566772,8.120621,1
2756,4.9576874,0.22285461,8.144561999999999,1
2757,4.979233,0.20489502,8.084702,1
2758,4.985214,0.23362732,8.060760499999999,1
2759,4.9900055,0.22045898,8.102661,1
2760,4.960083,0.2192688,8.073929,1
2761,4.9277496,0.21447754,8.072739,1
2762,4.936142,0.23123169,8.100265499999999,1
2763,4.956482,0.18693542,8.076324000000001,1
2764,4.9708557,0.20489502,8.064362,1
2765,4.963669,0.22045898,8.102661,1
2766,4.972046,0.22164917,8.085907,1
2767,4.9780273,0.2240448,8.090683,1
2768,4.948105,0.19412231,8.088303,1
2769,4.9576874,0.21087646,8.101471,1
2770,4.962478599999999,0.22164917,8.112244,1
2771,4.9672545999999995,0.22045898,8.084702,1
2772,4.946914700000001,0.2695465,8.082305999999999,1
2773,4.9552917,0.21447754,8.07991,1
2774,4.9744415,0.20010376,8.09787,1
2775,4.982818599999999,0.20848083,8.032028,1
2776,5.0007779999999995,0.16419983,8.01886,1
2777,5.042679,0.17616272,8.039214999999999,1
2778,5.0283203,0.20130920000000002,8.041611,1
2779,4.9732513,0.19293213,8.021255499999999,1
2780,4.8978269999999995,0.20010376,8.100265499999999,1
2781,4.827194,0.25277710000000003,8.15892,1
2782,4.8631134000000005,0.28509520000000005,8.170898,1
2783,4.9325410000000005,0.30186462,8.107452,1
2784,4.9900055,0.26235962,8.082305999999999,1
2785,4.972046,0.17616272,8.053574000000001,1
2786,4.9672545999999995,0.24559021,8.047592,1
2787,4.992401,0.23242188,8.006897,1
2788,4.995987,0.21806335,8.058365,1
2789,5.0223236,0.19770813,8.048798,1
2790,5.030700700000001,0.19651794,8.064362,1
2791,4.9576874,0.17855835,8.115829,1
2792,4.9588776,0.20370483,8.108642999999999,1
2793,5.06781,0.20130920000000002,8.029633,1
2794,5.12648,0.13067627,7.9637910000000005,1
2795,5.015152,0.13546753,8.009293,1
2796,4.8403625,0.20610046,8.136185000000001,1
2797,4.824798599999999,0.22764587,8.219971000000001,1
2798,4.8355865,0.26594543,8.223572,1
2799,4.80925,0.23362732,8.114639,1
2800,4.7577667,0.21447754,8.146957,1
2801,4.721863,0.27792358,8.272644,1
2802,4.7697449999999995,0.31503296,8.263077000000001,1
2803,4.779312,0.32101440000000003,8.304977000000001,1
2804,4.7900849999999995,0.2815094,8.228363,1
2805,4.7757263,0.27313232,8.230758999999999,1
2806,4.88945,0.19651794,8.154144,1
2807,5.096542400000001,0.10433959999999999,7.950622599999999,1
2808,5.264145,0.060043335,7.814163000000001,1
2809,5.3251953,0.091171265,7.7303619999999995,1
2810,5.30365,0.091171265,7.699234,1
2811,5.276108,0.10194397,7.779449499999999,1
2812,5.2461853,0.10913086,7.8704224,1
2813,5.231827,0.13186646,7.918304400000001,1
2814,5.2222443,0.18693542,8.030838000000001,1
2815,5.1276703,0.2695465,8.049988,1
2816,5.019928,0.25637817,8.124207,1
2817,4.979233,0.25875854,8.108642999999999,1
2818,4.882263,0.2695465,8.156525,1
2819,4.7805176,0.27552795,8.178085000000001,1
2820,4.7805176,0.29707336,8.23674,1
2821,4.7122803,0.31503296,8.2343445,1
2822,4.7960815000000006,0.31742859999999995,8.235535,1
2823,4.827194,0.26475525,8.199631,1
2824,4.847549400000001,0.2132721,8.140976,1
2825,4.875091599999999,0.17855835,8.109848,1
2826,4.8559265,0.15342712,8.09787,1
2827,4.842758,0.18814087,8.106247,1
