,AccX[m/s^2],AccY[m/s^2],AccZ[m/s^2],label
0,9.49231,-1.4315338,-0.104660034,1
1,8.811157000000001,-1.4902038999999998,-0.18965149,1
2,9.031417999999999,-1.4734344,-0.28662109999999996,1
3,9.285202,-1.5141448999999998,-0.4051361,1
4,9.287598,-1.4770355,-0.40992737,1
5,9.242111,-1.4961853,-0.36323547,1
6,9.322311000000001,-1.5500488000000001,-0.47576904,1
7,9.051772999999999,-1.6087189,-0.2686615,1
8,9.093674,-1.5751953,-0.26268005,1
9,9.152328500000001,-1.4878082000000001,-0.29141235,1
10,9.323516999999999,-1.4351348999999998,-0.31414795,1
11,9.285202,-1.4602661,-0.41471863,1
12,9.195419000000001,-1.5548401,-0.56555176,1
13,9.093674,-1.6206818,-0.5834961,1
14,8.982330000000001,-1.6110992,-0.43266296,1
15,9.032608,-1.546463,-0.43745422,1
16,9.33429,-1.3980255,-0.39675903,1
17,9.133179,-1.451889,-0.65293884,1
18,9.133179,-1.7679291000000001,-0.7020111,1
19,9.273239,-1.8577118000000001,-0.6110382,1
20,9.136764999999999,-1.7763061999999998,-0.5116729999999999,1
21,9.348647999999999,-1.8900298999999998,-0.58709717,1
22,9.075714,-1.5751953,-0.6253966999999999,1
23,9.129578,-1.3022614,-0.50927734,1
24,10.38295,-1.4530945,-0.6266022,1
25,9.388152999999999,-1.1334686,-0.67567444,1
26,9.036209,-1.1993103,-0.61701965,1
27,8.990723,-1.2759247,-0.6828613,1
28,9.292389,-1.4686583999999998,-0.5966644,1
29,9.062546000000001,-1.4099883999999998,-0.62420654,1
30,9.239716,-1.6206818,-0.8061676,1
31,9.193024000000001,-1.3609161,-0.6601104999999999,1
32,9.14035,-1.309433,-0.69602966,1
33,8.989517,-1.3657073999999998,-1.1102295,1
34,9.29718,-1.4016113000000001,-1.0443878,1
35,9.232529,-1.700882,-1.0395966,1
36,8.922485,-1.5512542999999999,-1.0312195,1
37,9.142746,-1.3848572000000001,-1.006073,1
38,8.990723,-2.0336761,-1.4370421999999998,1
39,8.649536,-1.625473,-1.274231,1
40,9.342667,-1.1358643,-1.2909851,1
41,10.060928,-1.4447021,-1.3664093000000002,1
42,9.3701935,-1.1490326000000002,-1.5363921999999999,1
43,9.151123,-0.064453125,-1.2706451,1
44,9.761642,-0.15782166,-0.8325043,1
45,8.627991,-0.5504760999999999,-1.9649506,1
46,8.770447,0.03491211,-1.9086914000000001,1
47,9.147537,-0.20211792,-1.9075011999999998,1
48,9.106842,0.28988647,-1.8799591,1
49,9.117614999999999,0.03970337,-1.9769287,1
50,8.715378,-0.08480835,-2.546753,1
51,8.911713,-0.090789795,-2.2833862000000003,1
52,9.131973,0.3509369,-1.1521301000000002,1
53,9.125992,0.36051940000000005,-0.93185425,1
54,7.5541990000000006,0.45867920000000006,-2.3863373,1
55,8.716583,0.36291504,-2.8831330000000004,1
56,9.346252,0.48143005,-2.6042023,1
57,9.359421000000001,0.65141296,-2.108612,1
58,8.598068,0.34735107,-2.3276825,1
59,8.942825,0.39881897,-2.8065186,1
60,9.501877,0.11631775,-3.3990784,1
61,7.550598,1.0691986,-3.4792937999999993,1
62,8.531036,0.95428467,-3.7630004999999995,1
63,8.195847,-0.09197998,-3.867157,1
64,9.516250999999999,-0.51097107,-2.978897,1
65,9.550964,0.16897583,-2.9214477999999997,1
66,8.594482000000001,0.66937256,-3.0220032000000003,1
67,8.390976,0.33299255,-3.1417083999999997,1
68,8.542999,0.35693359999999996,-3.2697906000000003,1
69,8.853058,0.24320984,-3.678009,1
70,8.80397,0.16897583,-2.405487,1
71,8.315552,0.5352935999999999,-2.3947144000000002,1
72,8.40892,0.2348175,-2.199585,1
73,8.600464,-0.00819397,-1.377182,1
74,7.253723,1.382843,-2.1277618,1
75,8.314362,0.89682007,-3.4972534,1
76,8.818328999999999,1.4810028,-2.3695831000000003,1
77,9.218169999999999,1.4403076000000001,-3.0231934,1
78,8.929672,0.9578705,-3.168045,1
79,8.587296,0.8273925999999999,-3.0626984,1
80,8.5849,0.5484619000000001,-2.9872742000000003,1
81,8.316742,0.35812378,-3.0279846,1
82,7.829528999999999,0.0037841796999999997,-3.0447387999999997,1
83,7.5099029999999996,-0.006988525400000001,-3.1716309,1
84,7.5075073,0.031311035,-3.4852752999999996,1
85,7.5099029999999996,0.02053833,-3.8420105,1
86,7.344696000000001,0.02772522,-4.3005066,1
87,7.256119,0.16539001,-4.808075,1
88,7.5374300000000005,0.31263733,-5.083404499999999,1
89,8.016281,0.5664215,-5.0750275,1
90,8.197037,0.7292328,-4.8379974,1
91,8.186264,0.81062317,-4.696747,1
92,7.221405,0.115112305,-4.0084076,1
93,6.221817,-0.63067627,-3.4673157,1
94,6.015915000000001,-1.3381653,-3.7366638,1
95,6.671936,-2.044464,-4.2526093000000005,1
96,7.775665299999999,-2.2348022000000003,-5.375503500000001,1
97,8.98114,-1.7224426,-5.752578700000001,1
98,9.3893585,-0.8593291999999999,-5.7992706,1
99,9.185837,-0.5217438,-5.8710938,1
100,8.532227,-0.41639709999999996,-5.73822,1
101,7.719391000000001,-0.45948792,-5.5466766,1
102,7.0334625,-0.65940857,-5.705902,1
103,7.0370482999999995,-1.1203003,-5.5742188,1
104,6.649185000000001,-1.4028167999999999,-5.4652863,1
105,7.143585000000001,-1.3968201,-5.772933999999999,1
106,7.610458400000001,-1.1274719,-6.3750763,1
107,8.007904,-0.7982788000000001,-6.9329224,1
108,7.585327,-0.7623595999999999,-7.022705,1
109,7.396178999999999,-0.99220276,-7.209457400000001,1
110,6.8239594,-0.93833923,-7.295654300000001,1
111,7.02388,-0.80067444,-7.3591003,1
112,7.0442350000000005,-0.77552795,-7.278885000000001,1
113,6.984375,-1.0496674,-7.648788499999999,1
114,6.8203735,-1.2040863000000002,-7.756531,1
115,6.5234985,-0.9323425,-7.8307495,1
116,6.6204529999999995,-0.45829773,-8.06897,1
117,6.669540400000001,-0.17578125,-7.97081,1
118,6.3810425,0.0013885498,-7.7732850000000004,1
119,5.988388,-0.16142273,-7.707443,1
120,5.72023,-0.71687317,-7.434509299999999,1
121,5.3647003,-1.5356903,-7.1280518,1
122,4.946914700000001,-2.0336761,-7.312408400000001,1
123,4.762558,-2.0540314,-7.652389500000001,1
124,5.0283203,-1.3022614,-7.548233,1
125,5.371887,-0.49301147,-7.6727295,1
126,5.8195953000000005,-0.16142273,-7.852295,1
127,6.0338745000000005,-0.15663147,-8.179108,1
128,5.5825653,-0.42956543,-8.180297999999999,1
129,5.1695709999999995,-0.4774475,-7.9648285,1
130,4.622497599999999,-0.41760254,-7.639221000000001,1
131,4.5422974,-0.42956543,-7.3016357,1
132,4.7206573,-0.51216125,-7.189102,1
133,5.289276,-0.63905334,-7.707443,1
134,5.5598297,-0.66659546,-8.441269,1
135,5.7298126,-0.6402588,-8.804001,1
136,5.750168,-0.5756073,-8.849487,1
137,5.7094574,-0.5241394,-8.669922,1
138,5.7525635,-0.50138855,-8.577744000000001,1
139,5.657989499999999,-0.5708313,-8.618439,1
140,5.30484,-0.6007538,-8.278473,1
141,5.2629395,-0.7048949999999999,-8.138411999999999,1
142,5.3311768,-0.8485565,-7.9169464000000005,1
143,5.253372,-0.7156677,-7.805618300000001,1
144,5.1121063,-0.502594,-7.6009063999999995,1
145,5.039093,-0.4738617,-7.254944,1
146,4.853530999999999,-0.59835815,-7.0131380000000005,1
147,4.652419999999999,-0.6079406999999999,-6.9604645000000005,1
148,4.6775665,-0.7013092,-6.916167999999999,1
149,4.940918,-0.9263610999999999,-7.034683,1
150,5.2821045,-1.1717681999999998,-6.8515167,1
151,5.4006042,-1.3752746999999999,-6.327194,1
152,4.762558,-1.5811768,-5.788498000000001,1
153,3.9317627,-1.7763061999999998,-5.7992706,1
154,3.4912415,-1.7236328,-6.1308746,1
155,3.4409637,-1.3082428,-6.4181669999999995,1
156,4.3256073,-0.8102417,-6.3643035999999995,1
157,5.589752,-0.67378235,-5.9800262,1
158,6.3343506,-0.8162384,-5.673568700000001,1
159,6.612075999999999,-0.6977234,-6.1990967,1
160,6.715027,-0.5504760999999999,-6.4756317,1
161,6.427719000000001,-0.7001189999999999,-6.291275,1
162,5.8004456,-0.7216644,-5.441345,1
163,5.501175,-0.86291504,-4.535125700000001,1
164,6.0494385,-1.2507781999999998,-4.7326508,1
165,6.773681599999999,-1.6350555,-5.0786133,1
166,7.494339,-2.0731811999999996,-5.041504,1
167,8.143172999999999,-2.344925,-5.539505,1
168,8.553772,-2.1641692999999997,-6.5857697,1
169,8.594482000000001,-1.3357697,-6.736603,1
170,9.013458,-0.44273376,-5.380279499999999,1
171,8.874603,-0.83657837,-5.0642548,1
172,9.042191,-1.8493346999999998,-5.240219000000001,1
173,9.251678,-2.3078156,-4.8463745000000005,1
174,9.596451,-2.2371826,-4.342392,1
175,9.992691,-2.0671996999999998,-3.8420105,1
176,10.341049,-1.5955504999999999,-3.5391388,1
177,10.867767,-0.9754485999999999,-3.0543213,1
178,11.672226,-0.5504760999999999,-2.725113,1
179,13.228454999999999,-0.37809753,-3.12854,1
180,14.257964999999999,-0.18176270000000003,-3.8623657,1
181,14.474639999999999,-0.081207275,-3.8216553,1
182,13.163803,-0.117126465,-2.508438,1
183,11.310699000000001,-0.21170044,-1.0419922,1
184,9.130783000000001,-0.48703003,-0.2111969,1
185,7.766083,-0.799469,0.45199585,1
186,6.2792816,-0.9036255,0.6052246,1
187,5.628067,-0.7875061,0.72612,1
188,6.218230999999999,-0.42716980000000004,0.6171875,1
189,7.590103,-0.2715454,0.06173706,1
190,9.020645,-0.34217834,-1.0970612,1
191,9.740097,-0.09197998,-1.5543518,1
192,10.359009,0.07321167,-1.1150208000000001,1
193,10.992264,0.17616272,-0.49491882,1
194,11.273589999999999,0.0025787354,-0.23753357,1
195,10.563705,-0.25120544,0.29277040000000004,1
196,9.486313,-0.24162292,0.60162354,1
197,8.323929,0.07800293,0.7404938,1
198,7.5913086,0.33299255,0.70936584,1
199,7.299209599999999,0.35932922,0.6351471,1
200,7.8474884000000005,0.25517273,0.29277040000000004,1
201,9.293579,0.028915405,0.19342041,1
202,10.12677,0.0037841796999999997,0.4986725,1
203,9.844254,0.036102295,0.6243744000000001,1
204,9.307953,0.07800293,1.0876465,1
205,8.831497,0.10314941400000001,1.2767944,1
206,8.80397,0.050476074,1.2660216999999998,1
207,9.020645,-0.0728302,1.0684966999999999,1
208,8.856644000000001,-0.15542603,1.0289917,1
209,9.090073,-0.24281311,1.1187744,1
210,9.273239,0.08758545,1.0948334,1
211,9.036209,0.29707336,1.1870117,1
212,8.982330000000001,0.08518982,1.7257080000000002,1
213,9.123596000000001,-0.37449646,2.0980072,1
214,9.029022,-0.76356506,1.5329742,1
215,9.054169,-0.77552795,1.0541382,1
216,9.227737,-0.5564574999999999,1.5090332,1
217,9.33548,-0.39126587,1.6275482,1
218,9.230133,-0.29190063,1.4838867,1
219,9.154724,-0.20570374,1.6239471,1
220,8.991913,-0.07762146,1.6407166000000002,1
221,8.642364500000001,-0.27633667,1.8633727999999998,1
222,8.4687805,-0.43315125,2.0357513,1
223,8.783615,-0.36132813,2.070465,1
224,9.457581,-0.040512085,2.1147614,1
225,9.985503999999999,0.17137146,2.242859,1
226,9.940017999999998,0.12469482400000001,2.0070189999999997,1
227,9.489914,-0.13388062,1.6490936,1
228,9.453994999999999,-0.4487152,1.7652130000000001,1
229,9.585678,-0.7527771,1.7484436,1
230,9.348647999999999,-0.8605193999999999,1.4874878,1
231,9.058945,-0.8760834000000001,1.2372893999999999,1
232,8.892548,-0.9107970999999999,0.60162354,1
233,9.067337,-1.0747986,0.0054779053000000005,1
234,9.778412,-1.4267578,-0.75109863,1
235,10.271622,-1.546463,-1.2131805,1
236,10.345839999999999,-1.6075133999999998,-1.3915405,1
237,10.004653999999999,-1.7260284,-0.64456177,1
238,9.103241,-1.3226013,-0.40393066,1
239,8.679474,-0.93833923,0.5190277,1
240,8.288025,-0.6115265000000001,1.1546936,1
241,8.247314,-0.9658661000000001,1.3617858999999999,1
242,9.021835000000001,-1.5177307,1.0361786,1
243,9.784393,-1.3980255,1.0122375,1
244,10.040573,-0.9646759,0.7823944,1
245,10.115997,-0.5528717,0.3705902,1
246,9.816711,-0.19853210000000002,0.20538330000000002,1
247,9.481522,-0.58399963,0.32629395,1
248,9.355835,-1.1047363000000001,0.19940186,1
249,9.307953,-1.6242676,0.38015747,1
250,9.026627000000001,-1.9295349,0.5956421,1
251,8.754883,-1.5249176000000002,0.32510376,1
252,8.569336,-1.0544586,0.70217896,1
253,8.679474,-0.23803711,1.2420806999999998,1
254,8.566939999999999,0.3138275,1.2420806999999998,1
255,8.971558,0.8130188,1.0708923000000001,1
256,9.398926,0.6346588000000001,1.0086365,1
257,10.046555,0.44432068,1.1187744,1
258,10.177048,0.1953125,1.0637054,1
259,9.832275,0.17018127,1.2145386,1
260,9.294785000000001,0.15820313,1.1199646,1
261,8.416107,0.069625854,0.7967529000000001,1
262,7.920501700000001,0.067230225,0.75605774,1
263,7.904953,-0.0105896,0.77041626,1
264,8.523849499999999,-0.1590271,0.4220581,1
265,9.348647999999999,-0.13269043,0.14433289,1
266,10.06691,-0.11831665,0.44720459999999995,1
267,10.281189,0.36291504,1.3474274,1
268,9.931641,0.7244415,1.9028778000000002,1
269,9.0577545,0.56163025,2.369751,1
270,8.431671000000001,0.31861877,2.3398132,1
271,7.903747599999999,0.09715271,1.983078,1
272,7.942062400000001,-0.47146606,1.9232330000000002,1
273,8.693832,-0.5851898,1.9603423999999998,1
274,9.9496,-0.99220276,1.5126190000000002,1
275,10.671448,-1.1203003,1.1714478000000002,1
276,9.857422,-0.59117126,1.0625153,1
277,8.829102,-0.24760437,0.99546814,1
278,8.64595,0.10673523,1.7328949,1
279,8.159927,0.05645752,1.8777313000000002,1
280,8.787216,-0.05128479,1.7759857,1
281,9.239716,0.10673523,1.8992919999999998,1
282,9.12001,0.0013885498,1.6490936,1
283,9.616806,-0.081207275,2.0561066,1
284,9.518631,-0.28112793,2.1758118,1
285,9.001495,-0.36611938,1.8226776000000002,1
286,8.92009,-0.25,1.6694488999999997,1
287,8.830307000000001,-0.0021972656,1.8394317999999998,1
288,8.869812,0.067230225,2.2189178,1
289,9.051772999999999,-0.00340271,2.0908203000000003,1
290,9.012267999999999,-0.12669373,2.0237884999999998,1
291,9.017059,-0.3074646,1.9878692999999998,1
292,8.935654,-0.45948792,2.0896301,1
293,8.982330000000001,-0.58758545,2.235672,1
294,8.978744500000001,-0.48822020000000005,2.4308014,1
295,9.009872,-0.35534668,2.3649597,1
296,8.866211,-0.33380127,2.1219482000000003,1
297,8.845871,-0.33499146,1.9603423999999998,1
298,8.996704,-0.36732483,2.1399077999999996,1
299,8.958389,-0.45111084,2.053711,1
300,8.605255,-0.5097656,2.022583,1
301,8.7812195,-0.36611938,2.2189178,1
302,9.023041000000001,0.009765625,2.2703857000000003,1
303,9.425262,0.35932922,2.1279297,1
304,9.457581,0.25517273,2.01062,1
305,9.299576,-0.014175415,1.9387816999999998,1
306,9.12001,-0.18415833,2.1734161,1
307,8.936844,-0.18057251,2.3410187000000002,1
308,9.026627000000001,0.02293396,2.4703063999999997,1
309,8.9991,0.18693542,2.5301514,1
310,8.944030999999999,0.1953125,2.5780334,1
311,9.011063,0.15701294,2.5840302000000004,1
312,8.964386,0.2300415,2.6367035,1
313,8.946425999999999,0.43234253,2.7492217999999995,1
314,8.954803,0.5305023,2.927597,1
315,9.041,0.40960693,2.8509827000000003,1
316,9.0793,0.11631775,3.0042114,1
317,8.872208,0.27192688,2.7480316000000005,1
318,8.319138,0.24559021,2.5624847,1
319,8.165909,0.112716675,2.0369568,1
320,8.218582000000001,-0.18176270000000003,2.3517914,1
321,8.744110000000001,-0.5792084,2.3158722000000003,1
322,9.5677185,-0.67497253,2.0788574,1
323,9.365402,-0.3768921,1.943573,1
324,8.896149000000001,0.013366699,2.1423035,1
325,8.382584,0.34495544,2.311081,1
326,8.423294,0.17497253,2.4188232000000003,1
327,9.134369,-0.3182373,2.5732574,1
328,9.550964,-0.7024994000000001,2.6690216,1
329,9.3941345,-0.7767334,2.7444305,1
330,8.903336,-0.5600586,2.8210450000000002,1
331,8.323929,-0.32900999999999997,3.030548,1
332,8.092895500000001,-0.12669373,2.963501,1
333,8.267669999999999,-0.25479126,3.01857,1
334,8.818328999999999,-0.5540619000000001,3.0101929,1
335,9.440826,-1.0496674,2.8354187,1
336,9.683838,-1.3992156999999998,2.4762877999999997,1
337,9.507858,-1.2208557,2.4068604,1
338,9.257675,-0.8712921,2.5337523999999996,1
339,8.915298,-0.62828064,2.6726074,1
340,8.630386,-0.6246948,2.7516173999999998,1
341,8.696228,-0.7803191999999999,2.6606445,1
342,9.001495,-0.80784607,2.4798737,1
343,9.117614999999999,-0.62350464,2.2751770000000002,1
344,9.025436000000001,-0.38887024,2.1602478,1
345,8.910507,-0.42597959999999996,2.3410187000000002,1
346,8.7608795,-0.6618042,2.7324677000000004,1
347,8.589691,-0.8988341999999999,2.8198547,1
348,8.7608795,-1.1131133999999998,2.8533783,1
349,8.917694000000001,-1.0771941999999999,2.912033,1
350,9.202606,-0.8988341999999999,2.8617554,1
351,9.692215,-0.54927063,2.5540924,1
352,10.0381775,0.019348145,2.3529816,1
353,9.529419,0.29109192,2.0632935000000003,1
354,8.556168,0.09596252400000001,2.1434937,1
355,7.930084,-0.14106749999999998,2.9479523,1
356,7.9827576,-0.18536377,3.3118591,1
357,8.346680000000001,-0.04888916,3.773941,1
358,8.529831,-0.20211792,3.2807465,1
359,8.797989,-0.38887024,2.8749237,1
360,9.122391,-0.32302856,2.8641509999999997,1
361,9.17746,-0.02734375,3.0772247000000004,1
362,9.175064,0.34616090000000005,2.99823,1
363,8.957199000000001,0.5568390000000001,2.635498,1
364,8.866211,0.71006775,2.5900116,1
365,8.748901,0.74957275,2.666626,1
366,8.472366000000001,0.7447815,2.8473816000000003,1
367,8.213791,0.79745483,2.9706879,1
368,8.119232,0.73161316,3.1598357999999998,1
369,8.310760499999999,0.58917236,3.2544098,1
370,8.661514,0.24081421,3.1526490000000003,1
371,8.801575,0.026535034,3.192154,1
372,8.865021,-0.03930664,3.105957,1
373,8.929672,-0.014175415,3.1167297,1
374,8.793198,-0.04888916,3.2005310000000002,1
375,8.558563000000001,0.031311035,3.2053222999999997,1
376,8.473572,0.1845398,3.3202362,1
377,8.46759,0.25517273,3.4818572999999997,1
378,8.548981,0.19770813,3.5105896,1
379,8.702209,0.13546753,3.5261383,1
380,8.843475,0.08998108,3.3693237000000003,1
381,8.892548,0.05166626,3.247223,1
382,8.695038,0.19770813,3.33461,1
383,8.534622,0.32460022,3.4698792000000003,1
384,8.458008,0.27792358,3.508194,1
385,8.554977000000001,0.24081421,3.4986115,1
386,8.757278,0.08998108,3.3561553999999996,1
387,8.806366,0.02772522,3.4184113,1
388,8.845871,-0.054870605,3.3848877,1
389,8.772842,-0.08958435,3.2448273,1
390,8.64476,-0.07522583,3.3585510000000003,1
391,8.568146,-0.09677124,3.4638977,1
392,8.539413,-0.13986206,3.508194,1
393,8.428085000000001,-0.15542603,3.5548705999999997,1
394,8.431671000000001,-0.11831665,3.5692443999999997,1
395,8.503494,-0.09197998,3.6039581,1
396,8.693832,-0.15542603,3.5680389999999997,1
397,8.722565,-0.20092773,3.5848082999999997,1
398,8.648346,-0.14346313,3.4638977,1
399,8.531036,-0.13148499,3.5237580000000004,1
400,8.388580000000001,-0.09677124,3.5105896,1
401,8.355057,-0.13986206,3.6207123,1
402,8.459197999999999,-0.13508606,3.7631683,1
403,8.531036,-0.093185425,3.777542,1
404,8.568146,-0.05847168,3.7392273,1
405,8.562149,-0.17219543,3.7284546,1
406,8.495117,-0.17578125,3.7464142,1
407,8.4687805,-0.18296814,3.7440186,1
408,8.447235000000001,-0.19613647,3.82901,1
409,8.394561999999999,-0.17698670000000002,3.9235839999999995,1
410,8.383789,-0.13508606,4.019348,1
411,8.400542999999999,-0.16381836,4.003784,1
412,8.5047,-0.17459106,3.963089,1
413,8.516663000000001,-0.19374084,3.9858246,1
414,8.442444,-0.1925354,4.079208400000001,1
415,8.479553,-0.15065002,3.9930114999999997,1
416,8.383789,-0.12310791,3.9559019999999996,1
417,8.367035000000001,-0.06086731,3.9726562999999993,1
418,8.349075,0.046875,3.9834442,1
419,8.40773,0.07321167,4.0756073,1
420,8.309569999999999,-0.016571045,4.026535,1
421,8.351471,-0.04170227,3.9403381,1
422,8.42569,-0.071640015,3.9259796000000002,1
423,8.432861,-0.064453125,3.8888702000000004,1
424,8.371811,-0.03691101,3.9463348,1
425,8.395752,-0.018966675,3.9966125,1
426,8.429275500000001,-0.00819397,3.9870300000000003,1
427,8.46759,-0.052474976,3.876892,1
428,8.441253999999999,-0.0440979,3.8038788,1
429,8.422089,-0.052474976,3.7523956,1
430,8.399353,-0.00340271,3.82901,1
431,8.399353,-0.02973938,3.8565521,1
432,8.44603,-0.018966675,3.852951,1
433,8.463989,-0.06564331,3.837387,1
434,8.503494,-0.09916687,3.837387,1
435,8.471176,-0.10874939,3.8541565,1
436,8.458008,-0.11831665,3.8589325,1
437,8.384979,-0.09916687,3.8900604,1
438,8.447235000000001,-0.021362305,3.915207,1
439,8.460403,-0.040512085,3.7727508999999997,1
440,8.4448395,-0.023742676,3.7128906,1
441,8.481949,-0.0010070800999999999,3.6326904000000004,1
442,8.562149,0.026535034,3.4567108,1
443,8.56575,0.052871704000000005,3.4866333,1
444,8.568146,0.03730774,3.6458587999999996,1
445,8.553772,0.076812744,3.7631683,1
446,8.539413,0.12588501,3.8086547999999993,1
447,8.483139,0.16419983,3.777542,1
448,8.471176,0.10913086,3.8074646,1
449,8.458008,0.079193115,3.813446,1
450,8.418503,-0.011779785,3.8637238,1
451,8.454422000000001,-0.066848755,3.8840790000000003,1
452,8.452026,-0.15782166,3.8780975,1
453,8.505889999999999,-0.15303039999999998,3.9235839999999995,1
454,8.502303999999999,-0.10395813,3.9032288,1
455,8.430481,-0.00819397,3.9056243999999998,1
456,8.371811,-0.069244385,3.9319610000000003,1
457,8.359848,-0.074035645,3.9547120000000002,1
458,8.297592,-0.078811646,3.9451294000000003,1
459,8.299988,-0.09677124,3.8936615,1
460,8.32872,-0.1015625,3.7835236000000005,1
461,8.435257,-0.100372314,3.6721953999999997,1
462,8.434067,0.031311035,3.7835236000000005,1
463,8.473572,0.15701294,3.9032288,1
464,8.394561999999999,0.117507935,4.0049896,1
465,8.404144,-0.02494812,3.9966125,1
466,8.362244,-0.14465332,3.9930114999999997,1
467,8.382584,-0.15423584,3.994217,1
468,8.493927000000001,-0.12669373,3.8864746,1
469,8.437653,-0.088394165,3.7871094,1
470,8.386185000000001,-0.054870605,3.8744965,1
471,8.383789,0.05166626,3.8074646,1
472,8.390976,0.093566895,3.8385925000000003,1
473,8.431671000000001,0.1330719,3.8709105999999998,1
474,8.461594,0.122299194,3.7679595999999997,1
475,8.516663000000001,0.1330719,3.6554260000000003,1
476,8.496307,0.14144897,3.4866333,1
477,8.438858,0.06124878,3.41362,1
478,8.479553,-0.050079346,3.2735596,1
479,8.545395,-0.20330810000000002,3.2173004,1
480,8.574127,-0.26437378,3.169403,1
481,8.691436999999999,-0.289505,3.2065125,1
482,8.786011,-0.26556396,3.2364502,1
483,8.770447,-0.088394165,3.2029266,1
484,8.708206,0.13786316,2.994629,1
485,8.654327,0.1330719,2.7899323,1
486,8.661514,0.12109375,2.9096375,1
487,8.690247,0.083984375,3.0317382999999998,1
488,8.754883,0.14384460000000002,3.0233612,1
489,8.951217999999999,-0.085998535,2.8665466,1
490,9.035003999999999,-0.38168335,2.651062,1
491,9.114014,-0.41879272,2.7599945,1
492,9.017059,-0.30506897,2.7444305,1
493,8.888962,-0.19013977,2.6893768,1
494,8.697433,-0.083602905,2.4978333,1
495,8.778824,0.012161255,2.2799682999999997,1
496,8.790802000000001,0.07321167,2.0872345,1
497,8.978744500000001,0.091171265,2.180603,1
498,9.123596000000001,-0.023742676,2.28714,1
499,9.193024000000001,-0.2859192,2.1159668,1
500,9.240905999999999,-0.5169524999999999,2.18779,1
501,9.070922999999999,-0.48822020000000005,2.1063842999999998,1
502,8.955994,-0.38287354,2.0465240000000002,1
503,9.043396000000001,-0.27754209999999996,1.8729552999999999,1
504,9.020645,-0.31942750000000003,1.7436676,1
505,9.0182495,-0.41999817,1.6526793999999998,1
506,9.155914,-0.31105042,1.5078278,1
507,9.246902,-0.19134521,1.3689728,1
508,9.242111,-0.12789917,1.5868378,1
509,8.975159,-0.21289063,1.7268982,1
510,8.929672,-0.3984375,1.7951355,1
511,9.12001,-0.80784607,1.7221069,1
512,9.324707,-1.0951538,1.5389556999999998,1
513,9.355835,-1.1214905000000002,1.334259,1
514,9.355835,-0.98501587,1.212143,1
515,9.307953,-0.8162384,1.3294678,1
516,9.111618,-0.77552795,1.3522034,1
517,8.973953,-0.88327026,1.4527588,1
518,9.058945,-0.98861694,1.4587555,1
519,9.15831,-1.0831909,1.310318,1
520,9.185837,-1.1645813,1.1738434,1
521,9.295975,-1.1262816999999998,0.8997040000000001,1
522,9.403717,-1.2076874,0.67225647,1
523,9.385757,-1.3501433999999999,0.6674651999999999,1
524,9.228943,-1.5057677999999999,0.78956604,1
525,9.091277999999999,-1.7080688000000002,0.80992126,1
526,8.98114,-1.8996124,0.63275146,1
527,8.959595,-1.7344055,0.45558167,1
528,9.085281,-1.2435913,0.45318604,1
529,9.355835,-0.6366729999999999,0.38734436,1
530,9.538986,-0.30387878,0.38615417,1
531,9.500687,-0.37449646,0.40530396,1
532,9.215775,-0.8605193999999999,0.34664917,1
533,8.9991,-1.2400055,0.5453644,1
534,8.997894,-1.6901093,0.5776825,1
535,9.130783000000001,-1.9450988999999999,0.36819458,1
536,9.2708435,-1.9427032,0.06892395,1
537,9.358231,-1.609909,0.23532104,1
538,9.364212,-1.5991364,0.5860595999999999,1
539,9.137955,-1.7296143,0.6602783,1
540,8.948822,-1.9450988999999999,0.5657196,1
541,9.080505,-1.9355164,0.46516418,1
542,9.333084,-1.6529999,0.53338623,1
543,9.366608,-1.4387207,0.59085083,1
544,8.98114,-1.2819061,0.176651,1
545,9.190628,-1.1789551,0.16708374,1
546,9.23732,-0.80067444,-0.047195435,1
547,9.3701935,-0.46427917,0.23770142,1
548,9.416885,-0.46788025,0.34425354,1
549,9.250488,-0.41639709999999996,0.14074707,1
550,9.205002,-0.06564331,0.17306519,1
551,9.576096000000001,0.08039856,0.19700623,1
552,9.655106,-0.16381836,0.06173706,1
553,9.244507,-0.77194214,-0.47576904,1
554,8.635178,-1.9510802999999999,0.041381836,1
555,8.770447,-2.1701507999999996,-0.09628296,1
556,9.258865,-1.9846039,0.23770142,1
557,9.706589,-1.5189362,-0.17289734,1
558,9.687424,-1.3297881999999999,-0.05319214,1
559,8.355057,-1.743988,0.24249268,1
560,8.288025,-1.9008026000000002,0.642334,1
561,8.969161999999999,-1.7774963,0.6542969,1
562,9.51265,-1.5129395,0.13356018,1
563,9.74968,-0.90242004,0.027023315,1
564,9.725739,-0.5169524999999999,0.65190125,1
565,9.735321,-0.77433777,0.50227356,1
566,9.275619500000001,-1.1789551,0.24369812,1
567,10.072891,-2.0145264,1.6754303,1
568,8.48674,-3.2092285,0.47593690000000005,1
569,8.540604,-3.4845733999999995,-0.4051361,1
570,9.445618,-2.4706268,0.108428955,1
571,9.589264,-1.7571564,-0.1381836,1
572,9.456389999999999,-0.9981841999999999,0.14672852,1
573,8.845871,-0.8641205,1.2301024999999999,1
574,8.420898,-1.6039276000000002,1.1307526,1
575,9.228943,-1.9558716,0.9751281999999999,1
576,9.725739,-1.6841278000000002,0.30714417,1
577,9.847839,-1.131073,0.12997437,1
578,9.747284,-0.78630066,0.21975708,1
579,9.431244,-1.1047363000000001,0.49150085,1
580,8.758484,-1.8636932000000002,0.7644348000000001,1
581,8.338303,-2.4742126,1.1068115,1
582,8.64595,-2.5544279999999997,1.0493469,1
583,9.167892,-2.4155578999999996,0.98350525,1
584,9.762848,-1.9055939,0.09286499,1
585,9.826294,-1.7571564,0.017440796,1
586,9.470749,-1.5763855,0.13476563,1
587,9.020645,-1.3896483999999998,0.32748413,1
588,8.637573,-1.6446227999999998,0.77760315,1
589,8.625595,-1.506958,1.2540436000000001,1
590,9.194229,-1.5368805,1.7364807,1
591,9.304352,-1.9020080000000001,1.1032104,1
592,9.571304,-2.04924,0.7692260999999999,1
593,9.612015,-1.7571564,0.80513,1
594,9.222961,-1.249588,0.8889313,1
595,9.012267999999999,-0.8018645999999999,1.0098419,1
596,8.953613,-0.6989135999999999,1.2456665,1
597,8.946425999999999,-0.84495544,1.6287383999999998,1
598,9.09845,-1.3046417,1.7209167,1
599,9.215775,-1.6745453000000001,1.6119843,1
600,9.267242,-1.5991364,1.2983398000000002,1
601,9.31633,-1.2843018,0.96195984,1
602,9.3546295,-0.88446045,0.61958313,1
603,9.116408999999999,-0.58758545,0.6531066999999999,1
604,8.966782,-0.5780029000000001,0.87934875,1
605,9.172684,-0.58039856,1.1726378999999998,1
606,9.391739,-0.5792084,1.3174896,1
607,9.482727,-0.6426544,1.231308,1
608,9.402527000000001,-0.739624,0.939209,1
609,9.286407,-0.7563781999999999,0.7321167,1
610,9.133179,-0.53970337,0.95835876,1
611,9.0793,-0.13986206,1.0816649999999999,1
612,9.149933,0.12109375,1.1020203000000002,1
613,9.15831,0.29109192,1.0888518999999999,1
614,9.17746,0.5089569,1.0780792,1
615,9.254074000000001,0.9303435999999999,1.207367,1
616,9.179855,1.3660888999999998,1.4898833999999999,1
617,8.940445,1.5169219999999999,1.5641022,1
618,8.710602,1.453476,1.6562805,1
619,8.675873,1.2894745,1.7173308999999997,1
620,8.783615,1.161377,1.7556305,1
621,8.950012,1.0656128,1.9747008999999998,1
622,8.90094,0.94470215,2.0561066,1
623,8.84227,0.7364044,2.070465,1
624,8.856644000000001,0.5987395999999999,2.1147614,1
625,8.983536,0.6035309,2.1195526,1
626,9.037399,0.7340088,2.2416534,1
627,9.030228,0.8597107,2.2105255,1
628,9.105637,0.89682007,2.1063842999999998,1
629,8.9991,0.8190155,2.0094147,1
630,8.860229499999999,0.6214905,2.0872345,1
631,8.862625,0.56044006,2.0393524,1
632,8.912903,0.6178894,2.2392578,1
633,9.029022,0.80345154,2.3182678,1
634,8.977554,0.9566803,2.3984832999999997,1
635,8.953613,0.8956299000000001,2.271576,1
636,8.954803,0.62268066,2.1817932,1
637,8.893753,0.5855713,2.2811584,1
638,8.825516,0.7292328,2.3865051,1
639,8.683060000000001,0.84654236,2.4750977,1
640,8.576523,0.86808777,2.5469207999999997,1
641,8.661514,0.8345642,2.754013,1
642,8.744110000000001,0.8345642,2.8378143,1
643,8.825516,0.6849365,2.871338,1
644,8.808762,0.49339294,2.8868866,1
645,8.772842,0.20370483,2.7815552,1
646,8.735733,0.076812744,2.8749237,1
647,8.668700999999999,0.20249939,3.1478577000000003,1
648,8.635178,0.31143188,3.2149048,1
649,8.606444999999999,0.37727356,3.2268677,1
650,8.614822,0.38446045,3.1634216,1
651,8.649536,0.378479,3.1969452,1
652,8.687851,0.4299469,3.1825714,1
653,8.772842,0.36889648,3.1801757999999998,1
654,8.946425999999999,0.28749084,3.149063,1
655,8.929672,0.34616090000000005,2.9575195,1
656,8.783615,0.36889648,2.9395599999999997,1
657,8.7417145,0.35453796,2.955124,1
658,8.710602,0.38804626,3.1035614,1
659,8.657928,0.35453796,3.2065125,1
660,8.599258,0.36051940000000005,3.0796203999999996,1
661,8.572922,0.45988464,2.9611206,1
662,8.605255,0.6502228,3.0880127,1
663,8.661514,0.8010559,3.3070679,1
664,8.610046,0.809433,3.3489685,1
665,8.4843445,0.58317566,3.3453827000000005,1
666,8.343079,0.29826355,3.3956604,1
667,8.180283,0.12109375,3.6099396,1
668,8.229355,0.02293396,3.7248687999999994,1
669,8.447235000000001,0.03970337,3.8709105999999998,1
670,8.601654,0.062438965,3.8505553999999997,1
671,8.705811,-0.08001709,3.6243133999999997,1
672,8.794388,-0.08001709,3.5979767,1
673,8.697433,0.18933105,3.5440980000000004,1
674,8.560959,0.41558838,3.4746704,1
675,8.498702999999999,0.47184753,3.3992462,1
676,8.559753,0.42037964,3.2520142000000005,1
677,8.660324000000001,0.36051940000000005,3.2496185,1
678,8.866211,0.25277710000000003,3.2232819,1
679,9.048172000000001,0.10314941400000001,3.149063,1
680,8.945221,0.079193115,3.0413208,1
681,8.989517,0.11152649,2.9287872000000004,1
682,9.069733,0.32341003,2.8354187,1
683,8.809952000000001,0.41079712,2.8414001,1
684,8.424484,0.44671629999999996,2.9611206,1
685,8.238937,0.46107483,3.1993408,1
686,8.340698,0.43952942,3.3370056000000003,1
687,8.683060000000001,0.44432068,3.2783508,1
688,9.014664,0.42277527,3.2232819,1
689,9.080505,0.32341003,3.1311035,1
690,8.918884,0.35572815,3.1275177000000003,1
691,8.693832,0.34735107,3.2735596,1
692,8.519058,0.40600586,3.3908690999999997,1
693,8.414916999999999,0.4287567,3.4662933,1
694,8.496307,0.42277527,3.4399567,1
695,8.612427,0.40481567,3.3429870000000004,1
696,8.636368,0.31742859999999995,3.4555206,1
697,8.627991,0.31861877,3.5536803999999997,1
698,8.657928,0.34495544,3.5895843999999997,1
699,8.598068,0.35932922,3.6075440000000003,1
700,8.546585,0.33776855,3.6733856,1
701,8.501099,0.299469,3.7308502,1
702,8.453217,0.31622314,3.6973267,1
703,8.412521,0.31622314,3.7452087,1
704,8.493927000000001,0.3796692,3.7679595999999997,1
705,8.554977000000001,0.3222046,3.6805725,1
706,8.556168,0.2707367,3.6147308,1
707,8.475967,0.2240448,3.714096,1
708,8.552582000000001,0.22285461,3.6266937000000006,1
709,8.574127,0.20489502,3.5692443999999997,1
710,8.510681,0.1510315,3.6661987000000003,1
711,8.423294,0.074417114,3.67099,1
712,8.471176,0.19770813,3.6482544000000003,1
713,8.532227,0.21687317,3.6961364999999997,1
714,8.563354499999999,0.2515869,3.5919800000000004,1
715,8.522644,0.27432249999999997,3.5680389999999997,1
716,8.455612,0.2695465,3.5979767,1
717,8.499908,0.2815094,3.6326904000000004,1
718,8.551376,0.27792358,3.6410675,1
719,8.529831,0.27552795,3.6434631,1
720,8.5047,0.29467773,3.6434631,1
721,8.498702999999999,0.34136963,3.6219177000000005,1
722,8.501099,0.33299255,3.6374817000000004,1
723,8.523849499999999,0.33657837,3.6099396,1
724,8.520264,0.31982422,3.6243133999999997,1
725,8.523849499999999,0.259964,3.647049,1
726,8.5047,0.3138275,3.6446532999999994,1
727,8.503494,0.26594543,3.6602172999999993,1
728,8.502303999999999,0.28509520000000005,3.6530303999999996,1
729,8.517868,0.3222046,3.6661987000000003,1
730,8.498702999999999,0.31861877,3.6913452000000007,1
731,8.48674,0.29826355,3.6997223,1
732,8.507095,0.3102417,3.7200775,1
733,8.545395,0.34376526,3.7069092000000006,1
734,8.501099,0.31263733,3.6650085,1
735,8.608841,0.2803192,3.6063538,1
736,8.564544999999999,0.32460022,3.516571,1
737,8.469971000000001,0.32580566,3.5608672999999995,1
738,8.495117,0.29707336,3.6219177000000005,1
739,8.510681,0.30186462,3.65065,1
740,8.538208000000001,0.32580566,3.6757812999999993,1
741,8.479553,0.32101440000000003,3.6757812999999993,1
742,8.526245,0.3497467,3.6530303999999996,1
743,8.552582000000001,0.378479,3.6674042,1
744,8.546585,0.29826355,3.714096,1
745,8.5047,0.24798584,3.7380370000000003,1
746,8.4687805,0.20610046,3.7356415000000003,1
747,8.4843445,0.22285461,3.8014832000000003,1
748,8.447235000000001,0.2707367,3.8469696000000004,1
749,8.4448395,0.33299255,3.8325958,1
750,8.469971000000001,0.25398254,3.8649292,1
751,8.46759,0.20249939,3.8457642,1
752,8.447235000000001,0.17497253,3.8565521,1
753,8.424484,0.15222168,3.9176025,1
754,8.402939,0.16659546,3.9199982,1
755,8.442444,0.19891357,3.9283752,1
756,8.431671000000001,0.23123169,3.916397,1
757,8.416107,0.31263733,3.9355469,1
758,8.430481,0.26715088,3.8924559999999997,1
759,8.442444,0.26475525,3.8661193999999997,1
760,8.453217,0.20370483,3.8649292,1
761,8.345474000000001,0.22764587,3.9343567000000004,1
762,8.435257,0.26475525,3.8948517,1
763,8.414916999999999,0.3138275,3.7871094,1
764,8.401749,0.2815094,3.8194275,1
765,8.454422000000001,0.26715088,3.8242187999999993,1
766,8.471176,0.18574524,3.916397,1
767,8.437653,0.15342712,3.9271697999999997,1
768,8.437653,0.24440002,3.915207,1
769,8.437653,0.28271484,3.8900604,1
770,8.428085000000001,0.24798584,3.8385925000000003,1
771,8.411316000000001,0.2707367,3.837387,1
772,8.440047999999999,0.24559021,3.8325958,1
773,8.478363,0.22285461,3.8361970000000003,1
774,8.437653,0.22285461,3.8744965,1
775,8.432861,0.2348175,3.916397,1
776,8.405334,0.2515869,3.9211883999999997,1
777,8.402939,0.26594543,3.9487152,1
778,8.356247,0.26235962,3.9044342000000003,1
779,8.362244,0.24440002,3.9439392,1
780,8.371811,0.22525024,3.9379425,1
781,8.454422000000001,0.24320984,3.9391480000000003,1
782,8.4448395,0.27671814,3.9319610000000003,1
783,8.448425,0.27911377,3.8888702000000004,1
784,8.419692999999999,0.24919128,3.868515,1
785,8.42569,0.27792358,3.9463348,1
786,8.400542999999999,0.25517273,3.9307709,1
787,8.423294,0.24679565,3.8661193999999997,1
788,8.361038,0.2515869,3.9391480000000003,1
789,8.402939,0.27192688,3.9223785,1
790,8.462799,0.30665588,3.82901,1
791,8.434067,0.29588318,3.8697052000000003,1
792,8.374207,0.26715088,3.876892,1
793,8.414916999999999,0.25637817,3.9199982,1
794,8.411316000000001,0.23960876,3.9930114999999997,1
795,8.414916999999999,0.25875854,3.998993,1
796,8.355057,0.30305479999999996,3.9666748,1
797,8.34787,0.26715088,3.9535065,1
798,8.337097,0.27552795,3.9535065,1
799,8.401749,0.21566772,3.947525,1
800,8.46759,0.2192688,3.9307709,1
801,8.454422000000001,0.23841858,3.9331665,1
802,8.417313,0.259964,3.9894257000000004,1
803,8.395752,0.26594543,3.959488,1
804,8.345474000000001,0.24440002,3.963089,1
805,8.34787,0.2348175,3.9858246,1
806,8.394561999999999,0.23602295,3.9666748,1
807,8.413712,0.24559021,3.9618835,1
808,8.452026,0.26115417,3.9343567000000004,1
809,8.431671000000001,0.2515869,3.9331665,1
810,8.401749,0.25398254,3.9439392,1
811,8.356247,0.25277710000000003,3.9738617,1
812,8.356247,0.23602295,3.9822387999999997,1
813,8.373016,0.26594543,4.019348,1
814,8.430481,0.34735107,3.9547120000000002,1
815,8.474762,0.22164917,3.9750519,1
816,8.402939,0.24320984,3.9714660000000004,1
817,8.326324000000001,0.24081421,4.018158000000001,1
818,8.414916999999999,0.29707336,3.9211883999999997,1
819,8.394561999999999,0.30305479999999996,3.837387,1
820,8.364639,0.29348755,3.8074646,1
821,8.375411999999999,0.2300415,3.8936615,1
822,8.405334,0.23602295,3.998993,1
823,8.396957,0.26235962,4.0468903,1
824,8.367035000000001,0.31982422,4.061249,1
825,8.382584,0.29707336,4.0468903,1
826,8.375411999999999,0.2707367,4.033722,1
827,8.349075,0.28271484,4.062439,1
828,8.334702,0.30186462,4.063644399999999,1
829,8.381393,0.21687317,4.1354675,1
830,8.344284,0.22883606,4.124695,1
831,8.331116,0.24320984,4.122299,1
832,8.332305999999999,0.259964,4.1342773,1
833,8.311966,0.25637817,3.9882202000000007,1
834,8.371811,0.24320984,3.9355469,1
835,8.386185000000001,0.19293213,3.9176025,1
836,8.428085000000001,0.2240448,3.9092102,1
837,8.401749,0.16778564,3.9559019999999996,1
838,8.343079,0.1845398,3.9906157999999996,1
839,8.361038,0.20729065,3.9199982,1
840,8.376602,0.22164917,3.9738617,1
841,8.412521,0.23362732,3.9618835,1
842,8.422089,0.24798584,3.9391480000000003,1
843,8.387375,0.19651794,3.9511108,1
844,8.441253999999999,0.25756836,3.9906157999999996,1
845,8.332305999999999,0.25038147,3.9894257000000004,1
846,8.417313,0.23242188,3.978653,1
847,8.396957,0.24200439999999998,3.8912659,1
848,8.334702,0.22045898,3.8433838,1
849,8.335907,0.19891357,4.0133667,1
850,8.405334,0.18574524,4.057663,1
851,8.453217,0.2132721,4.003784,1
852,8.456802,0.26475525,3.9391480000000003,1
853,8.422089,0.28630066,3.9044342000000003,1
854,8.365829,0.21687317,3.8792877,1
855,8.339493,0.18214417,3.9295654000000004,1
856,8.361038,0.1510315,3.9618835,1
857,8.418503,0.15701294,3.9223785,1
858,8.4687805,0.15820313,3.8924559999999997,1
859,8.44603,0.24679565,3.8421782999999996,1
860,8.461594,0.26594543,3.8338012999999997,1
861,8.384979,0.28630066,3.8517608999999995,1
862,8.375411999999999,0.22883606,3.9020386,1
863,8.376602,0.22764587,3.9511108,1
864,8.386185000000001,0.20848083,3.9487152,1
865,8.420898,0.24081421,3.9606934000000003,1
866,8.404144,0.23841858,3.9427337999999996,1
867,8.420898,0.27671814,3.9427337999999996,1
868,8.418503,0.29109192,3.9032288,1
869,8.396957,0.26235962,3.9343567000000004,1
870,8.346680000000001,0.24679565,3.9750519,1
871,8.351471,0.25637817,4.022949,1
872,8.369415,0.25637817,4.030121,1
873,8.375411999999999,0.25038147,4.0241394,1
874,8.355057,0.24440002,4.0744169999999995,1
875,8.449631,0.24679565,4.014557,1
876,8.412521,0.28988647,3.9235839999999995,1
877,8.308365,0.2300415,3.9654846,1
878,8.285629,0.21687317,4.0552673,1
879,8.331116,0.20610046,4.0803986000000005,1
880,8.363434,0.19651794,4.0744169999999995,1
881,8.363434,0.20010376,4.098358,1
882,8.378998,0.22764587,4.078003,1
883,8.351471,0.20610046,4.057663,1
884,8.358642999999999,0.24559021,4.0408936,1
885,8.32872,0.19293213,4.034912,1
886,8.369415,0.16419983,4.061249,1
887,8.341888,0.19770813,4.0648346,1
888,8.343079,0.2240448,4.0744169999999995,1
889,8.334702,0.2515869,4.063644399999999,1
890,8.337097,0.21806335,4.057663,1
891,8.332305999999999,0.17018127,4.073226999999999,1
892,8.363434,0.19770813,4.0720215,1
893,8.359848,0.18693542,4.100754,1
894,8.381393,0.21208191,4.0803986000000005,1
895,8.352661,0.24440002,4.0839996,1
896,8.338303,0.19891357,4.093567,1
897,8.339493,0.2132721,4.06604,1
898,8.376602,0.19891357,4.042098999999999,1
899,8.325134,0.19891357,4.093567,1
900,8.340698,0.2240448,4.0839996,1
901,8.359848,0.1953125,4.1019440000000005,1
902,8.398147999999999,0.20968628,4.0492706,1
903,8.255692,0.22644043,4.136673,1
904,8.334702,0.25038147,4.0863953,1
905,8.400542999999999,0.27432249999999997,3.9523163,1
906,8.32991,0.25038147,3.959488,1
907,8.307175,0.23841858,3.9894257000000004,1
908,8.322739,0.1953125,4.054062,1
909,8.362244,0.2132721,4.1318817,1
910,8.349075,0.2348175,4.129486,1
911,8.355057,0.22883606,4.1282806,1
912,8.337097,0.25756836,4.0923767,1
913,8.343079,0.24919128,4.063644399999999,1
914,8.314362,0.259964,4.0648346,1
915,8.326324000000001,0.24679565,4.061249,1
916,8.364639,0.2132721,4.0839996,1
917,8.339493,0.2300415,4.0875854,1
918,8.321533,0.23123169,4.0959625,1
919,8.32872,0.19651794,4.0947723,1
920,8.325134,0.19412231,4.1019440000000005,1
921,8.311966,0.22644043,4.122299,1
922,8.319138,0.21208191,4.0947723,1
923,8.325134,0.2300415,4.0816040000000005,1
924,8.344284,0.20848083,4.1031493999999995,1
925,8.349075,0.2240448,4.073226999999999,1
926,8.320343,0.20729065,4.089981,1
927,8.344284,0.20489502,4.098358,1
928,8.359848,0.19891357,4.0923767,1
929,8.352661,0.22525024,4.0756073,1
930,8.314362,0.24679565,4.105544999999999,1
931,8.367035000000001,0.27552795,4.0923767,1
932,8.387375,0.23362732,4.057663,1
933,8.304779,0.18214417,4.1151123,1
934,8.262878,0.2240448,4.1270904999999996,1
935,8.398147999999999,0.26715088,4.033722,1
936,8.373016,0.27911377,3.9606934000000003,1
937,8.313156,0.20968628,3.9882202000000007,1
938,8.339493,0.15940857,4.0408936,1
939,8.341888,0.11152649,4.1821594,1
940,8.325134,0.20610046,4.1594086,1
941,8.316742,0.25875854,4.105544999999999,1
942,8.282028,0.2635498,4.0923767,1
943,8.319138,0.23960876,4.1019440000000005,1
944,8.315552,0.19172668,4.0480804,1
945,8.346680000000001,0.14624023,4.1498413,1
946,8.378998,0.19412231,4.1474457000000005,1
947,8.355057,0.19293213,4.136673,1
948,8.323929,0.19172668,4.1354675,1
949,8.334702,0.1797638,4.1522217,1
950,8.322739,0.20489502,4.0803986000000005,1
951,8.326324000000001,0.23362732,4.0923767,1
952,8.296402,0.21687317,4.105544999999999,1
953,8.345474000000001,0.24200439999999998,4.093567,1
954,8.373016,0.22883606,4.0444946,1
955,8.341888,0.19891357,4.0756073,1
956,8.358642999999999,0.16539001,4.0684357,1
957,8.321533,0.2132721,4.063644399999999,1
958,8.356247,0.21447754,4.097168,1
959,8.376602,0.2132721,4.0516663,1
960,8.356247,0.24679565,4.0325165,1
961,8.361038,0.22045898,4.043289,1
962,8.375411999999999,0.24200439999999998,3.9834442,1
963,8.389770500000001,0.24919128,4.0001983999999995,1
964,8.308365,0.23960876,4.043289,1
965,8.322739,0.20729065,4.0648346,1
966,8.367035000000001,0.28509520000000005,3.9439392,1
967,8.394561999999999,0.23841858,3.9032288,1
968,8.381393,0.20729065,3.994217,1
969,8.374207,0.17736816,4.0444946,1
970,8.384979,0.19293213,4.0444946,1
971,8.333511,0.24440002,4.0061800000000005,1
972,8.317947,0.26235962,4.0013885,1
973,8.355057,0.24081421,3.9690703999999997,1
974,8.370621,0.25517273,3.9654846,1
975,8.40892,0.24679565,3.9116058,1
976,8.375411999999999,0.18933105,3.9487152,1
977,8.351471,0.23602295,3.9571074999999998,1
978,8.289214999999999,0.3138275,3.9080199999999996,1
979,8.302383,0.3222046,3.9463348,1
980,8.356247,0.25517273,3.9666748,1
981,8.406525,0.2707367,3.9415436,1
982,8.386185000000001,0.25398254,3.9726562999999993,1
983,8.386185000000001,0.25756836,4.0205536,1
984,8.388580000000001,0.20249939,4.136673,1
985,8.350265499999999,0.14503479,4.1151123,1
986,8.311966,0.119903564,4.08519,1
987,8.323929,0.15342712,4.1187134,1
988,8.358642999999999,0.1845398,4.116317700000001,1
989,8.371811,0.20249939,4.125885,1
990,8.345474000000001,0.17497253,4.117508,1
991,8.308365,0.15701294,4.160614,1
992,8.255692,0.19293213,4.180954,1
993,8.292800999999999,0.18214417,4.1677856,1
994,8.361038,0.16299438,4.129486,1
995,8.289214999999999,0.14863586,4.1522217,1
996,8.313156,0.15940857,4.207290599999999,1
997,8.40892,0.1953125,4.1079407,1
998,8.325134,0.23841858,3.994217,1
999,8.278442,0.27313232,4.0313263,1
1000,8.298798,0.22644043,4.1187134,1
1001,8.317947,0.14863586,4.177368,1
1002,8.337097,0.19172668,4.192932,1
1003,8.271255499999999,0.25875854,4.161804,1
1004,8.258087,0.2515869,4.177368,1
1005,8.308365,0.25875854,4.157013,1
1006,8.292800999999999,0.2348175,4.1079407,1
1007,8.305969000000001,0.2132721,4.176178,1
1008,8.339493,0.20968628,4.125885,1
1009,8.310760499999999,0.16539001,4.2180634,1
1010,8.280838000000001,0.22764587,4.220459,1
1011,8.365829,0.19412231,4.22406,1
1012,8.317947,0.20010376,4.1725769999999995,1
1013,8.23056,0.13786316,4.180954,1
1014,8.238937,0.14025879,4.2156677,1
1015,8.323929,0.119903564,4.1893462999999995,1
1016,8.326324000000001,0.19293213,4.212082,1
1017,8.279633,0.23841858,4.1522217,1
1018,8.319138,0.24440002,4.129486,1
1019,8.323929,0.2192688,4.093567,1
1020,8.353867,0.22285461,4.0863953,1
1021,8.367035000000001,0.12348938,4.097168,1
1022,8.333511,0.13786316,4.0492706,1
1023,8.339493,0.18574524,4.0839996,1
1024,8.32872,0.26834106,4.1031493999999995,1
1025,8.344284,0.27552795,4.0085754,1
1026,8.323929,0.24320984,4.014557,1
1027,8.398147999999999,0.2192688,4.054062,1
1028,8.417313,0.27192688,3.8697052000000003,1
1029,8.345474000000001,0.23960876,3.6015625,1
1030,8.24971,0.22285461,3.5979767,1
1031,8.254501,0.1845398,3.765564,1
1032,8.491531,0.13186646,4.1031493999999995,1
1033,8.747711,0.26594543,4.5867767,1
1034,8.465195,0.2803192,4.598739599999999,1
1035,8.203018,0.17376709,4.3569336,1
1036,8.237747,0.079193115,3.7667693999999994,1
1037,8.459197999999999,0.0049743652,3.8457642,1
1038,8.586089999999999,0.07202148400000001,4.1785583,1
1039,8.315552,0.2707367,4.2180634,1
1040,8.163513,0.25756836,3.8757019999999995,1
1041,8.042618,0.20729065,3.5788116000000003,1
1042,8.200638,0.20130920000000002,3.5943756000000002,1
1043,8.820724499999999,0.35693359999999996,4.367706299999999,1
1044,8.515472,0.28869629999999996,3.8565521,1
1045,7.9360657,0.03251648,3.9415436,1
1046,7.960006699999999,-0.033325195,4.5269165000000005,1
1047,8.218582000000001,0.062438965,5.0512543,1
1048,8.065353,0.10194397,4.6442413,1
1049,8.186264,0.13665771,4.344955400000001,1
1050,8.351471,0.110321045,4.251587000000001,1
1051,8.364639,0.17497253,4.370101999999999,1
1052,8.078522,0.29707336,4.55925,1
1053,7.945647999999999,0.27671814,4.742401,1
1054,8.103667999999999,0.1725769,4.9722443,1
1055,8.396957,0.19172668,4.496994,1
1056,8.325134,0.026535034,3.9571074999999998,1
1057,8.141967999999999,-0.105148315,3.9379425,1
1058,8.114441000000001,0.060043335,4.3892517,1
1059,8.034241,0.2815094,4.6143035999999995,1
1060,8.054580999999999,0.42277527,4.6131134000000005,1
1061,8.114441000000001,0.1953125,4.520935,1
1062,8.133591000000001,-0.03691101,4.535293599999999,1
1063,8.448425,-0.015365601000000001,4.7088776,1
1064,8.477158,0.038497925,4.5460815000000006,1
1065,8.121628,0.19172668,4.14505,1
1066,7.881011999999999,0.18574524,4.292282,1
1067,7.8786163,0.20610046,4.5233307,1
1068,8.1479645,0.22164917,4.4910125999999995,1
1069,8.218582000000001,0.16059875,4.398834,1
1070,8.430481,0.06124878,4.529312,1
1071,8.498702999999999,-0.04649353,4.5101624000000005,1
1072,8.256897,0.057647705,4.3174285999999995,1
1073,7.995926,0.10433959999999999,4.370101999999999,1
1074,7.940857,0.14025879,4.5029755,1
1075,8.084518,0.23960876,4.7519836,1
1076,8.165909,0.19293213,4.6586,1
1077,8.095291,0.20010376,4.390457,1
1078,8.092895500000001,0.12109375,4.4479065,1
1079,8.058182,0.119903564,4.550857499999999,1
1080,7.9935303,0.10433959999999999,4.6406403,1
1081,8.01268,0.15222168,4.6298676,1
1082,8.079727,0.09954834,4.5173492,1
1083,8.200638,0.06842041,4.4191895,1
1084,8.26886,0.07081604,4.595154,1
1085,8.42688,0.15940857,5.045273,1
1086,8.353867,0.24081421,4.7950745,1
1087,8.041412,0.25875854,4.100754,1
1088,7.873825,0.13067627,3.9487152,1
1089,8.028244,0.17616272,4.474243,1
1090,8.013885499999999,0.30426025,4.592758,1
1091,8.010284,0.29109192,4.670578,1
1092,8.10965,0.16539001,4.7723236,1
1093,8.341888,-0.02015686,4.9698486,1
1094,8.389770500000001,-0.17817688,4.718459999999999,1
1095,8.042618,-0.14944458,4.331787,1
1096,7.821151700000001,0.100753784,4.434737999999999,1
1097,7.7361603,0.2635498,4.670578,1
1098,7.8798065,0.2815094,4.846542400000001,1
1099,8.143172999999999,0.110321045,4.830978400000001,1
1100,8.302383,-0.028533936,4.6179046999999995,1
1101,8.253296,-0.030929565,4.56044,1
1102,8.323929,0.0756073,4.777115,1
1103,8.197037,0.25398254,4.587967,1
1104,7.894164999999999,0.26715088,4.1510315,1
1105,7.831924400000001,0.1845398,4.377289,1
1106,7.925292999999999,0.21566772,4.611908000000001,1
1107,8.018677,0.28749084,4.695709,1
1108,8.260483,0.24440002,4.864502,1
1109,8.513077000000001,0.20729065,4.7052917,1
1110,8.285629,0.13786316,4.3784790000000005,1
1111,7.924103,0.06124878,4.4275665,1
1112,7.8079834,0.18095398,4.6334686,1
1113,7.775665299999999,0.27911377,4.7783050000000005,1
1114,7.9181213,0.2695465,4.856125,1
1115,8.322739,0.14982605,4.9925995,1
1116,8.529831,0.07800293,4.4203795999999995,1
1117,8.177887,-0.02255249,4.14505,1
1118,8.005508,-0.021362305,4.338973999999999,1
1119,7.865448,0.2132721,4.7902830000000005,1
1120,7.6380005,0.24919128,4.8992157,1
1121,7.793609599999999,0.18814087,4.990204,1
1122,8.250916,0.069625854,4.987808,1
1123,8.246124,0.03251648,4.487411499999999,1
1124,8.054580999999999,0.0049743652,4.4203795999999995,1
1125,7.906142999999999,0.15580750000000002,4.6753540000000005,1
1126,7.775665299999999,0.3964386,4.8860474,1
1127,7.9001617,0.4084015,5.045273,1
1128,8.130005,0.19172668,4.731628400000001,1
1129,8.210205,0.08758545,4.4000244,1
1130,8.128799,-0.006988525400000001,4.549667400000001,1
1131,7.986343400000001,0.19770813,4.7388153,1
1132,7.8486785999999995,0.31143188,4.8381653,1
1133,7.901352,0.24679565,5.0297089999999995,1
1134,8.204224,0.119903564,4.961471599999999,1
1135,8.181473,0.04927063,4.458679,1
1136,7.9815674,0.067230225,4.554458599999999,1
1137,7.964797999999999,0.21566772,4.683746299999999,1
1138,7.744537400000001,0.3509369,4.878875700000001,1
1139,7.699051,0.34255979999999997,4.921966599999999,1
1140,7.873825,0.22164917,4.8824615,1
1141,8.179077000000001,0.031311035,4.8704834,1
1142,8.462799,0.0049743652,5.0404816,1
1143,8.357452,0.1797638,4.5807953,1
1144,7.920501700000001,0.19293213,4.358124,1
1145,7.6870728,0.34136963,4.498183999999999,1
1146,7.6739044000000005,0.34255979999999997,4.726837000000001,1
1147,7.8403015,0.20130920000000002,4.87648,1
1148,8.058182,0.105529785,4.7902830000000005,1
1149,8.210205,0.03970337,4.8393707,1
1150,8.378998,0.093566895,5.0273129999999995,1
1151,8.358642999999999,0.086380005,4.7519836,1
1152,7.9815674,0.11869812,4.376083400000001,1
1153,7.7050323,0.11869812,4.5113525,1
1154,7.633209,0.22764587,4.869293,1
1155,7.693053999999999,0.25756836,5.023712000000001,1
1156,7.8917847000000005,0.21806335,4.9854126,1
1157,8.070145,0.14863586,4.881256,1
1158,8.26886,0.09715271,4.971039,1
1159,8.551376,0.117507935,5.026108,1
1160,8.045013,0.22525024,4.349746700000001,1
1161,7.6763,0.20370483,4.4395294000000005,1
1162,7.5961,0.259964,4.761551,1
1163,7.640381,0.27671814,4.9590760000000005,1
1164,7.902557400000001,0.25637817,4.9770355,1
1165,8.191055,0.10913086,4.8597107,1
1166,8.243729,0.10913086,4.828598,1
1167,8.351471,0.06602478,5.0883636,1
1168,8.255692,0.15222168,4.50058,1
1169,7.7433320000000005,0.15222168,4.3294067,1
1170,7.585327,0.16539001,4.598739599999999,1
1171,7.6427765,0.24440002,4.8824615,1
1172,7.813965,0.21687317,5.076385500000001,1
1173,8.040222,0.17376709,4.980621299999999,1
1174,8.256897,0.112716675,4.869293,1
1175,8.271255499999999,0.06842041,5.046463,1
1176,8.24852,0.110321045,4.6334686,1
1177,7.8798065,0.19770813,4.3126373,1
1178,7.655945,0.22883606,4.732818599999999,1
1179,7.651153599999999,0.30305479999999996,4.841751,1
1180,7.7217865,0.2695465,5.066818,1
1181,7.937271000000001,0.1725769,5.042877,1
1182,8.2317505,0.07081604,4.967453,1
1183,8.378998,0.05645752,5.0213165,1
1184,8.267669999999999,0.119903564,4.479034400000001,1
1185,7.8175507,0.19651794,4.514953599999999,1
1186,7.5913086,0.24320984,4.7519836,1
1187,7.579330400000001,0.25277710000000003,5.0177307,1
1188,7.739746,0.1618042,5.0871580000000005,1
1189,8.040222,0.038497925,4.9734344,1
1190,8.158737,0.0049743652,4.8501434,1
1191,8.056975999999999,0.03491211,4.754364,1
1192,8.010284,0.14982605,5.2810974,1
1193,8.017471,0.20010376,4.871689,1
1194,7.870224,0.20729065,4.5305176,1
1195,7.818756,0.07800293,4.742401,1
1196,7.885788000000001,0.069625854,4.8381653,1
1197,7.93248,0.057647705,4.980621299999999,1
1198,8.015075999999999,0.117507935,4.966263,1
1199,8.025848,0.18693542,4.939926,1
1200,8.009094000000001,0.14863586,5.005768,1
1201,8.107254,0.14863586,5.006958,1
1202,7.942062400000001,0.23362732,4.731628400000001,1
1203,7.675110000000001,0.19412231,4.792679,1
1204,7.6463776,0.21087646,4.832184,1
1205,7.748123,0.12348938,5.026108,1
1206,8.01149,0.03970337,4.994994999999999,1
1207,8.1922455,0.06842041,4.921966599999999,1
1208,8.212601,0.091171265,4.880066,1
1209,8.106064,0.16778564,4.824997,1
1210,7.866638000000001,0.20370483,4.6370544,1
1211,7.6343994,0.14144897,4.809433,1
1212,7.661941499999999,0.17018127,4.9447019999999995,1
1213,7.8486785999999995,0.11392212,4.9913940000000006,1
1214,8.005508,0.06124878,4.9494934,1
1215,8.079727,0.05885315,4.769928,1
1216,8.043808,0.05645752,4.692123400000001,1
1217,7.9217070000000005,0.115112305,4.7435913,1
1218,7.811569,0.17497253,4.7567596,1
1219,7.7134094,0.18814087,4.6622010000000005,1
1220,7.707428,0.12469482400000001,4.79747,1
1221,7.9432526,0.079193115,5.2332152999999995,1
1222,8.571732,-0.06086731,5.563614,1
1223,8.436461999999999,0.062438965,5.1350555,1
1224,7.890579,0.19412231,4.50058,1
1225,7.5601807,0.18814087,4.6801453,1
1226,7.51828,0.2635498,4.9566803,1
1227,7.5961,0.29588318,5.125473,1
1228,7.739746,0.24081421,5.192505000000001,1
1229,7.908539,0.15342712,5.123077400000001,1
1230,7.991134599999999,0.06364441,5.005768,1
1231,8.054580999999999,-0.00579834,4.8908385999999995,1
1232,7.9121246,0.09715271,4.986603,1
1233,7.8606567,0.19412231,5.062027,1
1234,7.727767999999999,0.17018127,4.942322,1
1235,7.7612915,0.117507935,4.864502,1
1236,7.963608,0.110321045,4.942322,1
1237,8.003113,0.14025879,4.8860474,1
1238,7.9145202999999995,0.14743042,4.9411163,1
1239,7.762497,0.16299438,5.0799866,1
1240,7.7158050000000005,0.20610046,5.172165000000001,1
1241,7.564972,0.18933105,5.302643,1
1242,7.436874400000001,0.20489502,5.2822876,1
1243,7.5877075,0.14144897,5.0177307,1
1244,8.052185,0.012161255,4.632263,1
1245,8.521453999999999,0.031311035,4.3712919999999995,1
1246,8.653137,0.062438965,4.3641205,1
1247,8.454422000000001,0.08039856,4.330597,1
1248,8.235352,0.02053833,4.4000244,1
1249,8.07135,0.016952515,4.567627,1
1250,8.083313,0.11152649,4.577194,1
1251,8.102463,0.18933105,4.505371,1
1252,8.115631,0.13426208,4.4598846,1
1253,8.175491000000001,0.02532959,4.434737999999999,1
1254,8.274857,-0.016571045,4.488617,1
1255,8.204224,0.03012085,4.603530999999999,1
1256,8.058182,0.02053833,4.722046,1
1257,7.949234,0.016952515,4.809433,1
1258,7.9935303,0.05645752,4.8142242,1
1259,8.040222,0.060043335,4.6598053,1
1260,8.119232,0.08279419,4.524521,1
1261,8.228164999999999,0.098358154,4.4550934,1
1262,8.18866,0.12109375,4.4395294000000005,1
1263,8.027054,0.14144897,4.572418,1
1264,8.065353,0.12109375,4.524521,1
1265,8.074936,0.12469482400000001,4.4371339999999995,1
1266,8.118027,0.122299194,4.5412903,1
1267,8.173096000000001,0.04447937,4.5819855,1
1268,8.165909,-0.052474976,4.634659,1
1269,8.132400500000001,0.0013885498,4.651413,1
1270,8.102463,0.06364441,4.632263,1
1271,8.045013,0.07081604,4.6131134000000005,1
1272,8.024658,-0.0045928955,4.550857499999999,1
1273,8.119232,0.0025787354,4.496994,1
1274,8.122817999999999,-0.0010070800999999999,4.5305176,1
1275,8.177887,0.021743774,4.48024,1
1276,8.131195,0.07081604,4.534103400000001,1
1277,8.122817999999999,0.11152649,4.5173492,1
1278,8.079727,0.06124878,4.611908000000001,1
1279,8.037827,0.07081604,4.5628357,1
1280,8.074936,0.064834595,4.550857499999999,1
1281,8.121628,0.069625854,4.549667400000001,1
1282,8.157532000000002,0.11869812,4.5939635999999995,1
1283,8.130005,0.07202148400000001,4.607132,1
1284,8.070145,-0.03213501,4.651413,1
1285,8.064163,-0.009384155,4.6538086,1
1286,8.052185,-0.081207275,4.7364197,1
1287,8.086899,-0.102752686,4.7280273,1
1288,8.124023,-0.13029480000000002,4.568817,1
1289,8.082123,-0.107543945,4.4910125999999995,1
1290,8.097686999999999,-0.01776123,4.572418,1
1291,8.128799,0.05406189,4.55925,1
1292,8.106064,-0.040512085,4.554458599999999,1
1293,8.024658,-0.124313354,4.5412903,1
1294,8.040222,-0.20092773,4.5963593000000005,1
1295,8.107254,-0.14944458,4.663391000000001,1
1296,8.157532000000002,-0.13029480000000002,4.678955,1
1297,8.110855,-0.13867188,4.690918,1
1298,8.066559,-0.03213501,4.5580444,1
1299,8.021072,-0.057266235,4.6933136,1
1300,8.033035,-0.093185425,4.698105,1
1301,8.007904,-0.14106749999999998,4.6825410000000005,1
1302,8.07373,-0.12669373,4.6478269999999995,1
1303,8.122817999999999,-0.10395813,4.627472,1
1304,8.107254,-0.081207275,4.669372599999999,1
1305,8.022263,-0.10635376,4.687332,1
1306,7.9935303,-0.14346313,4.6945190000000006,1
1307,8.033035,-0.15184021,4.6825410000000005,1
1308,8.060562,-0.18415833,4.706482,1
1309,8.064163,-0.18057251,4.710083,1
1310,8.036621,-0.17338562,4.7160645,1
1311,8.025848,-0.14346313,4.7388153,1
1312,8.01268,-0.20211792,4.683746299999999,1
1313,8.03064,-0.19732666,4.73761,1
1314,7.973175,-0.21647644,4.714859,1
1315,8.0905,-0.16021729,4.6442413,1
1316,8.110855,-0.21768188,4.6574097000000005,1
1317,8.050995,-0.20690918,4.628677400000001,1
1318,8.022263,-0.19134521,4.702896,1
1319,8.092895500000001,-0.17698670000000002,4.745987,1
1320,8.079727,-0.18415833,4.710083,1
1321,8.036621,-0.18296814,4.698105,1
1322,8.064163,-0.15065002,4.702896,1
1323,8.070145,-0.24401855,4.8070374000000005,1
1324,8.027054,-0.1590271,4.766342,1
1325,7.991134599999999,-0.11831665,4.670578,1
1326,7.968399000000001,-0.17459106,4.6226959999999995,1
1327,8.047409,-0.22366333,4.595154,1
1328,8.097686999999999,-0.23564148,4.611908000000001,1
1329,8.074936,-0.26795959999999996,4.742401,1
1330,8.052185,-0.25479126,4.7843018,1
1331,8.016281,-0.24520874,4.757965,1
1332,8.029449000000001,-0.26316833,4.7040863,1
1333,8.042618,-0.20330810000000002,4.695709,1
1334,8.070145,-0.21887207,4.7196503,1
1335,8.050995,-0.24641418,4.809433,1
1336,8.025848,-0.20570374,4.8345795,1
1337,8.043808,-0.22726439999999998,4.773529,1
1338,8.000717,-0.21409607,4.745987,1
1339,8.039017,-0.2320404,4.7052917,1
1340,8.070145,-0.26795959999999996,4.553253,1
1341,8.035430999999999,-0.24401855,4.611908000000001,1
1342,8.023453,-0.2859192,4.6933136,1
1343,8.028244,-0.21768188,4.6681824,1
1344,7.9827576,-0.22964478,4.757965,1
1345,7.9624023,-0.25239563,4.833374,1
1346,8.083313,-0.26437378,4.730423,1
1347,8.096480999999999,-0.28352356,4.6298676,1
1348,8.024658,-0.23803711,4.631073000000001,1
1349,8.01268,-0.25239563,4.706482,1
1350,8.025848,-0.25360107,4.7711334,1
1351,8.01149,-0.210495,4.7759247,1
1352,8.006699000000001,-0.19972229,4.768738,1
1353,8.016281,-0.22247314,4.754364,1
1354,8.048599000000001,-0.26556396,4.692123400000001,1
1355,8.056975999999999,-0.28231812,4.6885223,1
1356,8.055786,-0.31942750000000003,4.7567596,1
1357,8.077332,-0.30625916,4.781905999999999,1
1358,8.09169,-0.25958252,4.742401,1
1359,8.089294,-0.24880981,4.774719,1
1360,8.07135,-0.2859192,4.81781,1
1361,7.9791718,-0.29788208,4.761551,1
1362,7.9109343999999995,-0.2787323,4.55925,1
1363,7.960006699999999,-0.24043274,4.572418,1
1364,8.006699000000001,-0.17219543,4.650223,1
1365,7.9923399999999996,-0.13388062,4.808243,1
1366,7.9815674,-0.24162292,4.8537292,1
1367,8.033035,-0.26795959999999996,4.8609160000000005,1
1368,8.053390499999999,-0.24401855,4.805847,1
1369,7.9923399999999996,-0.24162292,4.7878875999999995,1
1370,7.9743805,-0.23324585,4.749588,1
1371,7.9815674,-0.17698670000000002,4.774719,1
1372,7.956421000000001,-0.19013977,4.780700700000001,1
1373,7.9875490000000005,-0.19013977,4.7998657,1
1374,8.043808,-0.18536377,4.718459999999999,1
1375,8.022263,-0.15663147,4.773529,1
1376,8.007904,-0.18415833,4.777115,1
1377,8.067749000000001,-0.21768188,4.748382599999999,1
1378,8.046204,-0.22366333,4.8046417,1
1379,8.006699000000001,-0.1877594,4.766342,1
1380,7.9660034,-0.14465332,4.768738,1
1381,7.9348755,-0.22486877,4.734024,1
1382,7.976775999999999,-0.20690918,4.73761,1
1383,7.9851529999999995,-0.23324585,4.7998657,1
1384,8.035430999999999,-0.21768188,4.8190155,1
1385,8.046204,-0.22247314,4.801056,1
1386,7.989944500000001,-0.21528625,4.7555695,1
1387,7.9552307,-0.20330810000000002,4.749588,1
1388,7.904953,-0.22605896,4.808243,1
1389,7.9348755,-0.22366333,4.8046417,1
1390,8.037827,-0.21170044,4.830978400000001,1
1391,8.01268,-0.23803711,4.7902830000000005,1
1392,8.028244,-0.22605896,4.7711334,1
1393,8.013885499999999,-0.22247314,4.781905999999999,1
1394,7.9875490000000005,-0.21170044,4.836975,1
1395,7.973175,-0.22605896,4.840561,1
1396,7.969589,-0.23803711,4.8046417,1
1397,8.046204,-0.26675415,4.753174,1
1398,8.078522,-0.2799225,4.734024,1
1399,8.094086,-0.23564148,4.754364,1
1400,8.043808,-0.2212677,4.880066,1
1401,8.050995,-0.24043274,4.8345795,1
1402,8.017471,-0.29548645,4.5700226,1
1403,8.035430999999999,-0.28831482,4.479034400000001,1
1404,8.036621,-0.24043274,4.5783997,1
1405,8.092895500000001,-0.20451355,4.696914700000001,1
1406,8.10965,-0.20092773,4.7364197,1
1407,8.067749000000001,-0.22845459,4.6586,1
1408,8.013885499999999,-0.24162292,4.598739599999999,1
1409,8.010284,-0.26316833,4.603530999999999,1
1410,8.056975999999999,-0.21528625,4.561630200000001,1
1411,8.041412,-0.19613647,4.5412903,1
1412,8.064163,-0.20092773,4.7723236,1
1413,8.130005,-0.16500854,4.979431,1
1414,8.025848,-0.1590271,4.8932343000000005,1
1415,7.9624023,-0.16381836,4.5424805,1
1416,8.013885499999999,-0.17698670000000002,4.2108917,1
1417,8.127609,-0.22964478,4.4084015,1
1418,8.168304,-0.20451355,4.6933136,1
1419,8.066559,-0.18296814,4.845352,1
1420,7.937271000000001,-0.25837708,4.7783050000000005,1
1421,8.004303,-0.24641418,4.597549400000001,1
1422,8.122817999999999,-0.23922729999999998,4.6765594,1
1423,8.146759,-0.22486877,4.735214,1
1424,8.07373,-0.20211792,4.8489379999999995,1
1425,7.901352,-0.21768188,4.892044,1
1426,7.8438873,-0.210495,4.924362,1
1427,7.919311500000001,-0.28352356,4.9447019999999995,1
1428,8.029449000000001,-0.33859253,4.789093,1
1429,8.039017,-0.28231812,4.754364,1
1430,8.108459,-0.26556396,4.7555695,1
1431,8.059372,-0.23683167,4.711273,1
1432,7.9384613,-0.19613647,4.706482,1
1433,7.949234,-0.2607727,4.6801453,1
1434,8.01149,-0.28710938,4.6993103,1
1435,8.029449000000001,-0.27633667,4.830978400000001,1
1436,8.033035,-0.26675415,4.830978400000001,1
1437,7.988739,-0.19853210000000002,4.8022614,1
1438,8.01149,-0.22845459,4.8142242,1
1439,8.000717,-0.19013977,4.846542400000001,1
1440,8.022263,-0.24043274,4.7843018,1
1441,7.9743805,-0.21768188,4.7388153,1
1442,8.024658,-0.20092773,4.7591553,1
1443,8.033035,-0.17578125,4.856125,1
1444,7.998321499999999,-0.17817688,4.833374,1
1445,7.964797999999999,-0.24401855,4.769928,1
1446,8.005508,-0.25360107,4.7411957000000005,1
1447,7.9995117,-0.2966919,4.8226013,1
1448,8.003113,-0.18894958,4.904007,1
1449,8.045013,-0.21170044,4.927948000000001,1
1450,8.025848,-0.19493103,5.0021667,1
1451,7.882202,-0.19013977,4.8070374000000005,1
1452,7.8235474,-0.20211792,4.6801453,1
1453,7.8606567,-0.26795959999999996,4.722046,1
1454,7.892975,-0.28352356,4.8752747,1
1455,7.915725699999999,-0.22605896,5.0009765999999996,1
1456,7.9660034,-0.22605896,4.999771,1
1457,7.9923399999999996,-0.24401855,4.8597107,1
1458,7.986343400000001,-0.2799225,4.7914734,1
1459,7.906142999999999,-0.28112793,4.8537292,1
1460,7.8606567,-0.20930481,4.9147796999999995,1
1461,7.906142999999999,-0.20809937,4.8597107,1
1462,7.873825,-0.22366333,4.824997,1
1463,7.9276886,-0.24162292,4.9016113,1
1464,7.963608,-0.26675415,4.950699,1
1465,7.9516296,-0.25837708,4.9542847000000005,1
1466,7.93248,-0.15184021,4.9231567,1
1467,7.864242599999999,-0.20092773,4.840561,1
1468,7.8845979999999996,-0.19013977,4.884857,1
1469,7.950439500000001,-0.23443604,4.8992157,1
1470,8.080917,-0.25360107,4.8824615,1
1471,8.034241,-0.25598145,4.8345795,1
1472,7.995926,-0.21528625,4.821411,1
1473,7.991134599999999,-0.19613647,4.920761,1
1474,8.115631,-0.26437378,5.1194916,1
1475,8.122817999999999,-0.22726439999999998,5.022522,1
1476,7.767272999999999,-0.23324585,4.6598053,1
1477,7.7182007,-0.27754209999999996,4.686142,1
1478,7.871429400000001,-0.33499146,4.8932343000000005,1
1479,7.794815,-0.20809937,5.204483,1
1480,7.669113,-0.13508606,5.197296,1
1481,7.6667175,-0.14585876,5.0871580000000005,1
1482,7.7684784,-0.24880981,5.005768,1
1483,7.8917847000000005,-0.29071045,4.9925995,1
1484,7.894164999999999,-0.2859192,5.0883636,1
1485,7.901352,-0.20809937,5.0811768,1
1486,7.945647999999999,-0.13627625,5.0332947,1
1487,7.8079834,-0.14106749999999998,5.0476529999999995,1
1488,7.6703186,-0.19853210000000002,5.306228599999999,1
1489,7.787628,-0.25,5.363693,1
1490,7.9540253,-0.25479126,5.1147003,1
1491,7.9815674,-0.23443604,4.687332,1
1492,8.018677,-0.33380127,4.632263,1
1493,8.061767999999999,-0.3768921,4.8022614,1
1494,8.131195,-0.44992065,4.824997,1
1495,8.068954,-0.42956543,4.766342,1
1496,7.924103,-0.40322876,4.757965,1
1497,7.9109343999999995,-0.33259583,4.8034514999999995,1
1498,7.9217070000000005,-0.23564148,4.8992157,1
1499,7.9540253,-0.17338562,4.9147796999999995,1
1500,8.056975999999999,-0.20330810000000002,4.888443,1
1501,7.9839478,-0.20930481,4.7902830000000005,1
1502,7.9671936,-0.2859192,4.748382599999999,1
1503,8.031845,-0.17817688,4.8166199999999995,1
1504,8.007904,-0.15184021,4.7962646,1
1505,8.006699000000001,-0.062057495,4.731628400000001,1
1506,8.077332,-0.05847168,4.763946499999999,1
1507,8.106064,-0.023742676,4.7902830000000005,1
1508,8.01149,-0.100372314,4.8824615,1
1509,7.898956299999999,-0.17817688,4.8357697,1
1510,7.9109343999999995,-0.20092773,4.695709,1
1511,7.906142999999999,-0.117126465,4.7076874,1
1512,7.9935303,0.024139404,4.7172545999999995,1
1513,8.03064,0.052871704000000005,4.718459999999999,1
1514,8.092895500000001,-0.006988525400000001,4.695709,1
1515,8.106064,-0.10635376,4.6442413,1
1516,8.066559,-0.15303039999999998,4.6047363,1
1517,8.067749000000001,-0.13269043,4.488617,1
1518,7.945647999999999,-0.12669373,4.532913,1
1519,8.068954,-0.14225769,4.464676,1
1520,8.088104,-0.18415833,4.561630200000001,1
1521,8.084518,-0.17338562,4.8776703,1
1522,8.213791,-0.17578125,4.908798,1
1523,8.185074,-0.2607727,4.857315,1
1524,8.046204,-0.32302856,4.754364,1
1525,7.897766000000001,-0.28831482,4.809433,1
1526,7.894164999999999,-0.2571869,4.686142,1
1527,8.029449000000001,-0.36611938,4.5807953,1
1528,8.034241,-0.39724729999999997,4.690918,1
1529,8.127609,-0.37809753,4.895630000000001,1
1530,8.061767999999999,-0.19374084,4.907593,1
1531,7.9552307,-0.12310791,4.698105,1
1532,7.946838400000001,-0.12669373,4.3605194,1
1533,8.045013,-0.23683167,4.5424805,1
1534,8.068954,-0.27275085,4.6574097000000005,1
1535,8.115631,-0.15542603,4.666976999999999,1
1536,8.058182,-0.19013977,4.929153400000001,1
1537,8.029449000000001,-0.16979979999999997,4.840561,1
1538,8.031845,-0.24043274,4.7866974,1
1539,8.053390499999999,-0.10874939,4.749588,1
1540,8.119232,-0.04649353,4.6849365,1
1541,8.119232,-0.06086731,4.6538086,1
1542,7.9217070000000005,-0.18655396,4.8273926,1
1543,7.890579,-0.22247314,4.8609160000000005,1
1544,7.940857,-0.28231812,4.725647,1
1545,8.050995,-0.19374084,4.598739599999999,1
1546,8.139572,-0.14465332,4.508972,1
1547,8.273651,-0.10874939,4.496994,1
1548,8.24852,-0.14825439999999998,4.555649,1
1549,8.131195,-0.16500854,4.671768,1
1550,7.9947357000000006,-0.14106749999999998,4.7388153,1
1551,7.903747599999999,-0.19493103,4.6622010000000005,1
1552,7.9276886,-0.24043274,4.628677400000001,1
1553,8.082123,-0.21409607,4.5472717000000005,1
1554,8.244919,-0.21170044,4.5664215,1
1555,8.207809,-0.16979979999999997,4.6538086,1
1556,8.040222,-0.17098999,4.8190155,1
1557,8.01268,-0.19374084,4.7651367,1
1558,7.9935303,-0.17936707,4.669372599999999,1
1559,8.005508,-0.11592102,4.528122,1
1560,8.096480999999999,-0.09437561,4.520935,1
1561,8.098877,-0.13148499,4.690918,1
1562,8.106064,-0.13148499,4.656204,1
1563,8.033035,-0.16021729,4.529312,1
1564,8.047409,-0.19853210000000002,4.5939635999999995,1
1565,8.059372,-0.16740417,4.592758,1
1566,8.108459,-0.16979979999999997,4.6586,1
1567,8.070145,-0.17098999,4.6538086,1
1568,8.088104,-0.19732666,4.6777496,1
1569,8.060562,-0.17817688,4.6478269999999995,1
1570,8.033035,-0.121917725,4.6262817,1
1571,8.058182,-0.095581055,4.6059265,1
1572,7.997116,-0.1015625,4.6442413,1
1573,8.052185,-0.12908936,4.6825410000000005,1
1574,8.146759,-0.15184021,4.7040863,1
1575,8.200638,-0.16619873,4.616699,1
1576,8.153946000000001,-0.18057251,4.577194,1
1577,8.07135,-0.18536377,4.628677400000001,1
1578,8.013885499999999,-0.19732666,4.634659,1
1579,8.004303,-0.22486877,4.711273,1
1580,8.094086,-0.24401855,4.734024,1
1581,8.115631,-0.20570374,4.6753540000000005,1
1582,8.124023,-0.18536377,4.712478599999999,1
1583,8.1874695,-0.15303039999999998,4.8190155,1
1584,8.258087,-0.121917725,5.030899,1
1585,7.957626299999999,-0.27035522,4.5807953,1
1586,7.881011999999999,-0.2607727,4.3641205,1
1587,8.0905,-0.05607605,4.592758,1
1588,8.243729,0.05166626,4.429962000000001,1
1589,8.108459,-0.05847168,4.3401794,1
1590,7.8917847000000005,-0.08958435,4.695709,1
1591,8.007904,-0.12071228,4.732818599999999,1
1592,8.01149,-0.14106749999999998,4.742401,1
1593,7.915725699999999,-0.15542603,4.7986603,1
1594,7.9288940000000006,-0.13748169,4.8106384,1
1595,7.9264984,-0.057266235,4.821411,1
1596,7.9540253,0.03491211,4.8190155,1
1597,7.949234,0.019348145,4.8668976,1
1598,7.9145202999999995,-0.052474976,4.851333599999999,1
1599,7.9947357000000006,-0.14944458,4.87648,1
1600,8.066559,-0.20330810000000002,4.8429565000000006,1
1601,8.122817999999999,-0.23324585,4.7627562999999995,1
1602,8.07254,-0.25,4.7675323,1
1603,8.010284,-0.21768188,4.7052917,1
1604,7.920501700000001,-0.27514648,4.711273,1
1605,7.933669999999999,-0.21289063,4.7471924,1
1606,7.961212,-0.13867188,4.669372599999999,1
1607,8.061767999999999,-0.11592102,4.611908000000001,1
1608,8.164719,-0.15663147,4.6574097000000005,1
1609,8.082123,-0.23564148,4.769928,1
1610,7.9707794000000005,-0.21409607,4.856125,1
1611,7.9288940000000006,-0.16500854,4.7962646,1
1612,7.9827576,-0.14106749999999998,4.8070374000000005,1
1613,8.021072,-0.11114502,4.769928,1
1614,8.021072,-0.047698975,4.766342,1
1615,7.957626299999999,-0.07043457,4.793869,1
1616,7.937271000000001,-0.17459106,4.904007,1
1617,7.897766000000001,-0.24880981,4.927948000000001,1
1618,7.845092999999999,-0.25,4.97583,1
1619,7.925292999999999,-0.21170044,4.988998400000001,1
1620,8.049789,-0.16021729,4.8273926,1
1621,7.9827576,-0.18894958,4.880066,1
1622,7.9228973,-0.18176270000000003,4.8752747,1
1623,7.9145202999999995,-0.20809937,4.988998400000001,1
1624,7.9755707,-0.210495,4.931534,1
1625,8.023453,-0.25360107,4.966263,1
1626,8.065353,-0.20930481,4.713669,1
1627,7.9935303,-0.15663147,4.5101624000000005,1
1628,8.098877,-0.20092773,4.5077667,1
1629,7.9923399999999996,-0.18296814,4.240814,1
1630,7.998321499999999,-0.17098999,4.4323425,1
1631,8.165909,-0.09677124,5.063217,1
1632,8.106064,-0.0440979,4.89682,1
1633,7.697845500000001,-0.16859436,4.9327393,1
1634,7.6882779999999995,-0.30625916,4.967453,1
1635,7.816360499999999,-0.35176086,4.994994999999999,1
1636,7.9312897,-0.23922729999999998,5.039276,1
1637,8.048599000000001,-0.18415833,5.1242676,1
1638,7.9707794000000005,-0.17098999,5.121887,1
1639,7.755310000000001,-0.19853210000000002,4.939926,1
1640,7.846283000000001,-0.22964478,5.120682,1
1641,8.143172999999999,-0.19374084,5.0524445,1
1642,8.267669999999999,-0.12669373,4.1235046,1
1643,8.186264,-0.23683167,3.8122559000000003,1
1644,8.380188,-0.30625916,4.0121613,1
1645,8.110855,-0.083602905,4.1187134,1
1646,7.767272999999999,0.05406189,5.303833,1
1647,7.387802000000001,0.0025787354,5.015334999999999,1
1648,7.209427000000001,-0.14106749999999998,5.2942656999999995,1
1649,7.3578644,-0.22845459,5.62706,1
1650,7.8043976,-0.32063293,5.738388,1
1651,8.113235000000001,-0.44033813,5.7479705999999995,1
1652,8.037827,-0.35653687,5.454681400000001,1
1653,7.9815674,-0.24043274,4.984207,1
1654,7.69545,-0.17698670000000002,4.9518889999999995,1
1655,7.766083,-0.14106749999999998,5.236801,1
1656,8.1527405,-0.18057251,4.9016113,1
1657,8.213791,-0.0728302,4.0361023000000005,1
1658,8.083313,-0.19732666,4.0816040000000005,1
1659,7.952835,-0.21768188,4.643036,1
1660,7.790024000000001,-0.07522583,5.168564,1
1661,7.652359,0.03730774,5.422348,1
1662,7.8247375,-0.03453064,5.363693,1
1663,7.802002000000001,-0.26795959999999996,5.3122253,1
1664,7.7421417,-0.33859253,5.2691193,1
1665,7.842697,-0.26675415,5.046463,1
1666,7.846283000000001,-0.30387878,5.0560455,1
1667,7.7433320000000005,-0.28710938,5.0213165,1
1668,7.592499,-0.22007751,5.070404,1
1669,7.636794999999999,-0.19134521,5.1577910000000005,1
1670,8.035430999999999,-0.119522095,4.9447019999999995,1
1671,8.222183,-0.13867188,4.7843018,1
1672,8.209014999999999,-0.08958435,4.698105,1
1673,8.074936,-0.0045928955,4.8357697,1
1674,7.881011999999999,0.13426208,4.832184,1
1675,7.785232499999999,0.12469482400000001,4.904007,1
1676,7.745727499999999,0.02293396,4.9183655,1
1677,7.760101299999999,-0.071640015,5.0273129999999995,1
1678,7.8079834,-0.12310791,5.1039276,1
1679,7.865448,-0.14346313,5.093155,1
1680,7.904953,-0.09437561,5.0596312999999995,1
1681,7.882202,-0.088394165,4.920761,1
1682,7.8474884000000005,-0.121917725,4.856125,1
1683,7.9109343999999995,-0.20211792,4.907593,1
1684,7.8403015,-0.23683167,4.856125,1
1685,7.760101299999999,-0.20211792,4.8704834,1
1686,7.802002000000001,-0.15303039999999998,4.8609160000000005,1
1687,7.871429400000001,-0.13388062,4.8022614,1
1688,7.956421000000001,-0.16381836,4.878875700000001,1
1689,8.157532000000002,-0.14825439999999998,5.094345,1
1690,8.107254,-0.16021729,4.984207,1
1691,7.8391113,-0.3146515,4.868087999999999,1
1692,7.845092999999999,-0.32661438,4.9135895,1
1693,7.9851529999999995,-0.23443604,5.3122253,1
1694,8.389770500000001,-0.17338562,5.475021400000001,1
1695,8.58371,-0.14704895,4.7280273,1
1696,7.908539,-0.097976685,3.8840790000000003,1
1697,7.745727499999999,-0.28112793,4.237228400000001,1
1698,7.6834869999999995,-0.14944458,4.895630000000001,1
1699,7.5553894,0.119903564,5.319397,1
1700,7.496734599999999,0.16539001,5.358902,1
1701,7.7134094,-0.08958435,5.030899,1
1702,8.043808,-0.29190063,5.05365,1
1703,8.228164999999999,-0.37210083,5.4163666,1
1704,8.299988,-0.19972229,4.987808,1
1705,7.865448,-0.05847168,4.601135299999999,1
1706,7.404556299999999,-0.069244385,4.702896,1
1707,7.4117429999999995,-0.10874939,4.7950745,1
1708,7.798400999999999,-0.10635376,5.014145,1
1709,8.130005,-0.081207275,4.97583,1
1710,8.346680000000001,-0.06564331,4.948303,1
1711,8.449631,-0.06803894,5.1362457,1
1712,8.24852,-0.07762146,5.142227,1
1713,7.7696686,-0.109939575,4.768738,1
1714,7.415328999999999,-0.15542603,4.689728,1
1715,7.426101700000001,-0.19613647,4.829788,1
1716,7.597289999999999,-0.117126465,5.077591,1
1717,7.819946300000001,-0.13148499,5.2380066,1
1718,7.991134599999999,-0.16859436,5.1829376,1
1719,8.066559,-0.26316833,5.062027,1
1720,7.952835,-0.17817688,5.0332947,1
1721,7.7840424,-0.030929565,5.064422599999999,1
1722,7.762497,0.010971068999999998,5.089554,1
1723,7.886993400000001,0.013366699,5.026108,1
1724,7.942062400000001,-0.06803894,4.828598,1
1725,7.946838400000001,-0.17459106,4.8070374000000005,1
1726,7.9851529999999995,-0.24401855,4.8752747,1
1727,7.9288940000000006,-0.26197815,4.845352,1
1728,7.8570557,-0.05368042,4.9698486,1
1729,7.8247375,0.14863586,5.0201263,1
1730,7.805588,0.083984375,4.984207,1
1731,7.809173599999999,-0.19732666,5.0368805,1
1732,7.924103,-0.3649292,5.149414,1
1733,7.9935303,-0.49421692,5.065613,1
1734,7.940857,-0.5600586,4.9650574,1
1735,7.845092999999999,-0.49661255,4.9494934,1
1736,7.725387599999999,-0.3589325,4.993789700000001,1
1737,7.83432,-0.27754209999999996,5.0404816,1
1738,7.907333400000001,-0.24880981,5.0201263,1
1739,7.9995117,-0.19732666,4.9650574,1
1740,8.028244,-0.19853210000000002,4.8345795,1
1741,8.124023,-0.23564148,4.73761,1
1742,8.106064,-0.19613647,4.789093,1
1743,7.866638000000001,-0.1925354,4.8657074,1
1744,7.802002000000001,-0.03930664,4.9339294,1
1745,7.8570557,0.043289185,5.026108,1
1746,7.859451299999999,-0.02494812,4.9494934,1
1747,7.8391113,-0.035720825,5.069214,1
1748,7.846283000000001,0.028915405,5.141037,1
1749,7.758896000000001,0.045684814000000004,5.239197,1
1750,7.724182000000001,0.012161255,5.2344055,1
1751,7.7433320000000005,-0.05128479,5.226028400000001,1
1752,7.745727499999999,-0.13148499,5.197296,1
1753,7.785232499999999,-0.18296814,5.2032776,1
1754,7.7792509999999995,-0.19853210000000002,5.1314545,1
1755,7.842697,-0.15303039999999998,5.0871580000000005,1
1756,7.85347,-0.102752686,5.0727997,1
1757,7.8965607,-0.14704895,4.9626617,1
1758,7.894164999999999,-0.08958435,4.942322,1
1759,7.906142999999999,-0.08720398,4.9770355,1
1760,7.8606567,-0.030929565,5.015334999999999,1
1761,7.836715700000001,0.0013885498,5.0297089999999995,1
1762,7.816360499999999,-0.0021972656,5.066818,1
1763,7.790024000000001,-0.02255249,5.0332947,1
1764,7.854675299999999,0.067230225,5.011749299999999,1
1765,7.805588,0.100753784,5.018936,1
1766,7.822342,0.14144897,5.1434326,1
1767,7.8235474,-0.035720825,5.2092743,1
1768,7.902557400000001,-0.13269043,5.0512543,1
1769,7.9935303,-0.18176270000000003,4.936325,1
1770,7.9396667,-0.08480835,4.895630000000001,1
1771,7.8175507,-0.078811646,4.9650574,1
1772,7.8067779999999996,-0.0105896,5.0572357000000006,1
1773,7.778061,0.02532959,5.0596312999999995,1
1774,7.813965,0.09596252400000001,4.8142242,1
1775,7.93248,0.25756836,4.821411,1
1776,8.039017,0.41079712,4.856125,1
1777,7.991134599999999,0.47782898,4.8776703,1
1778,7.885788000000001,0.49339294,5.030899,1
1779,7.745727499999999,0.42396545,5.1362457,1
1780,7.7840424,0.25398254,5.07399,1
1781,7.816360499999999,0.11631775,5.0404816,1
1782,7.837905999999999,0.062438965,4.9973754999999995,1
1783,7.9121246,0.13665771,4.9447019999999995,1
1784,7.950439500000001,0.20489502,4.971039,1
1785,7.9312897,0.23242188,4.920761,1
1786,7.829528999999999,0.259964,4.9518889999999995,1
1787,7.833114599999999,0.36410522,4.963867,1
1788,7.8570557,0.3282013,4.971039,1
1789,7.908539,0.37368774,4.888443,1
1790,7.9181213,0.25398254,4.8896484000000004,1
1791,7.9001617,0.26715088,4.907593,1
1792,7.882202,0.3282013,4.9854126,1
1793,7.809173599999999,0.31143188,4.942322,1
1794,7.7960052,0.34495544,4.968658400000001,1
1795,7.8127747,0.38327026,4.9925995,1
1796,7.8606567,0.38804626,5.0129395,1
1797,7.904953,0.40361023,4.961471599999999,1
1798,7.8786163,0.36889648,4.9195709999999995,1
1799,7.7996063,0.34616090000000005,4.9231567,1
1800,7.778061,0.33299255,4.9518889999999995,1
1801,7.827133,0.34735107,5.008148,1
1802,7.8570557,0.28630066,4.8992157,1
1803,7.901352,0.19412231,4.925552400000001,1
1804,7.998321499999999,0.16539001,4.9734344,1
1805,7.9624023,0.12948608,4.942322,1
1806,7.846283000000001,0.112716675,4.95549,1
1807,7.7960052,0.088775635,4.9147796999999995,1
1808,7.865448,0.069625854,4.9698486,1
1809,7.885788000000001,-0.04170227,5.005768,1
1810,7.9181213,-0.06803894,4.9770355,1
1811,7.946838400000001,-0.08241272,4.9530945,1
1812,7.949234,-0.081207275,4.9973754999999995,1
1813,7.957626299999999,-0.03691101,4.9447019999999995,1
1814,7.9121246,-0.06803894,4.986603,1
1815,7.8391113,-0.02494812,5.006958,1
1816,7.815170299999999,0.00019836426,4.9626617,1
1817,7.859451299999999,0.03012085,4.9375305,1
1818,7.858261,0.036102295,4.9722443,1
1819,7.897766000000001,0.06842041,5.0356903,1
1820,7.8881836,0.122299194,5.006958,1
1821,7.9001617,0.15580750000000002,4.9973754999999995,1
1822,7.904953,0.1797638,5.010544,1
1823,7.885788000000001,0.13665771,4.921966599999999,1
1824,7.9264984,0.11152649,4.9494934,1
1825,7.894164999999999,0.115112305,4.9195709999999995,1
1826,7.7840424,0.11392212,4.979431,1
1827,7.8558655,0.15461731,5.0009765999999996,1
1828,7.9839478,0.14144897,4.921966599999999,1
1829,7.9217070000000005,0.12828064,4.826202400000001,1
1830,7.876220699999999,0.17137146,4.921966599999999,1
1831,7.892975,0.20610046,4.981827,1
1832,7.8570557,0.22285461,5.0680084,1
1833,7.8438873,0.1905365,5.058441,1
1834,7.8079834,0.100753784,5.0129395,1
1835,7.858261,0.07321167,4.943512,1
1836,7.9217070000000005,0.10673523,4.911194,1
1837,7.9360657,0.1618042,4.8908385999999995,1
1838,7.8486785999999995,0.19293213,4.963867,1
1839,7.837905999999999,0.18214417,5.0213165,1
1840,7.8678436000000005,0.18933105,5.0021667,1
1841,7.873825,0.1845398,5.023712000000001,1
1842,7.946838400000001,0.13546753,4.9698486,1
1843,7.9121246,0.117507935,4.9387207,1
1844,7.885788000000001,0.117507935,4.9722443,1
1845,7.821151700000001,0.12469482400000001,5.0045624,1
1846,7.8438873,0.13905334,5.089554,1
1847,7.829528999999999,0.11631775,5.1110992,1
1848,7.8474884000000005,0.12348938,5.0177307,1
1849,7.909729,0.12348938,4.9447019999999995,1
1850,8.042618,0.07321167,4.8393707,1
1851,7.9947357000000006,0.06842041,4.829788,1
1852,7.9743805,0.107925415,4.8190155,1
1853,7.859451299999999,0.16539001,4.824997,1
1854,7.8522797,0.18814087,4.9099884000000005,1
1855,7.950439500000001,0.21806335,4.7902830000000005,1
1856,7.957626299999999,0.27192688,4.745987,1
1857,7.949234,0.22883606,4.73761,1
1858,7.9228973,0.12469482400000001,4.718459999999999,1
1859,7.9815674,0.026535034,4.7244415,1
1860,8.01268,0.013366699,4.7998657,1
1861,8.017471,0.10433959999999999,4.902817,1
1862,7.8798065,0.14982605,4.9854126,1
1863,7.6870728,0.13426208,5.0416718000000005,1
1864,7.793609599999999,0.05885315,5.0572357000000006,1
1865,7.873825,0.016952515,5.120682,1
1866,7.9145202999999995,-0.0105896,5.144623,1
1867,7.8881836,0.007369995,5.117096,1
1868,7.8043976,0.08998108,5.082382,1
1869,7.821151700000001,0.15701294,5.042877,1
1870,7.865448,0.2240448,5.009353599999999,1
1871,7.920501700000001,0.15222168,5.0165405,1
1872,7.886993400000001,0.10913086,5.050049,1
1873,7.8510740000000006,0.079193115,5.0727997,1
1874,7.8403015,0.110321045,5.0297089999999995,1
1875,7.8678436000000005,0.14384460000000002,4.9698486,1
1876,7.865448,0.1725769,4.945907599999999,1
1877,7.836715700000001,0.21087646,4.927948000000001,1
1878,7.872619599999999,0.1845398,4.9590760000000005,1
1879,7.882202,0.19651794,5.039276,1
1880,7.858261,0.22045898,4.979431,1
1881,7.864242599999999,0.17137146,5.022522,1
1882,7.898956299999999,0.22883606,4.9782257,1
1883,7.816360499999999,0.29109192,4.925552400000001,1
1884,7.83432,0.26834106,4.869293,1
1885,7.881011999999999,0.17736816,4.8908385999999995,1
1886,7.91333,0.08518982,5.0177307,1
1887,7.8917847000000005,0.12109375,5.026108,1
1888,7.827133,0.16419983,5.006958,1
1889,7.8391113,0.18095398,5.0009765999999996,1
1890,7.865448,0.19651794,4.9411163,1
1891,7.864242599999999,0.16299438,4.925552400000001,1
1892,7.886993400000001,0.14144897,4.912383999999999,1
1893,7.8798065,0.091171265,4.994994999999999,1
1894,7.877411,0.13905334,5.0356903,1
1895,7.854675299999999,0.17137146,5.0416718000000005,1
1896,7.8474884000000005,0.19293213,5.022522,1
1897,7.873825,0.2192688,4.9722443,1
1898,7.9181213,0.1797638,4.9052124,1
1899,7.8606567,0.23721313,4.929153400000001,1
1900,7.863052400000001,0.19412231,4.920761,1
1901,7.886993400000001,0.19293213,4.931534,1
1902,7.902557400000001,0.20729065,4.9195709999999995,1
1903,7.886993400000001,0.23602295,4.884857,1
1904,7.8881836,0.24440002,4.881256,1
1905,7.919311500000001,0.21687317,4.888443,1
1906,7.9540253,0.20968628,4.904007,1
1907,7.964797999999999,0.17736816,4.900421,1
1908,7.898956299999999,0.19412231,4.927948000000001,1
1909,7.8283385999999995,0.18095398,4.9626617,1
1910,7.9264984,0.1905365,4.9494934,1
1911,7.963608,0.26115417,4.823807,1
1912,7.9384613,0.15820313,4.729233,1
1913,7.915725699999999,0.064834595,4.7675323,1
1914,7.9432526,0.013366699,4.832184,1
1915,7.9875490000000005,0.04927063,4.9650574,1
1916,7.9217070000000005,0.16059875,5.009353599999999,1
1917,7.870224,0.2707367,5.003372,1
1918,7.8474884000000005,0.2192688,4.948303,1
1919,7.9145202999999995,0.20489502,4.9590760000000005,1
1920,7.937271000000001,0.13067627,4.931534,1
1921,7.915725699999999,0.10673523,4.9518889999999995,1
1922,7.9288940000000006,0.1510315,4.961471599999999,1
1923,7.872619599999999,0.19770813,4.999771,1
1924,7.8606567,0.22525024,5.0009765999999996,1
1925,7.846283000000001,0.20610046,4.980621299999999,1
1926,7.9109343999999995,0.20610046,4.9016113,1
1927,7.907333400000001,0.19412231,4.9327393,1
1928,7.886993400000001,0.19293213,4.907593,1
1929,7.9624023,0.23841858,4.8932343000000005,1
1930,7.957626299999999,0.20848083,4.856125,1
1931,7.9552307,0.1725769,4.8393707,1
1932,7.9264984,0.19891357,4.852539,1
1933,7.865448,0.1797638,4.888443,1
1934,7.8893889999999995,0.14743042,4.89682,1
1935,7.9228973,0.08518982,4.884857,1
1936,7.9660034,0.0756073,4.847748,1
1937,7.969589,0.13067627,4.884857,1
1938,7.873825,0.12469482400000001,5.0440674,1
1939,7.830719,0.19412231,4.945907599999999,1
1940,7.8175507,0.1797638,4.7914734,1
1941,7.811569,0.13186646,4.7567596,1
1942,7.7840424,0.16419983,4.8273926,1
1943,7.8845979999999996,0.19651794,4.869293,1
1944,7.9228973,0.27192688,4.917175299999999,1
1945,7.8833923,0.26715088,4.8992157,1
1946,7.909729,0.25875854,4.9016113,1
1947,7.9145202999999995,0.23841858,4.769928,1
1948,7.83432,0.19172668,4.5807953,1
1949,7.7517242,0.083984375,4.30307,1
1950,7.871429400000001,0.13665771,4.2503967000000005,1
1951,7.9624023,0.14503479,4.4622803,1
1952,7.991134599999999,0.11392212,4.730423,1
1953,8.144363,0.14263916,4.7411957000000005,1
1954,8.377808,0.28630066,4.735214,1
1955,8.311966,0.22644043,4.5137480000000005,1
1956,8.080917,0.050476074,4.367706299999999,1
1957,7.9839478,-0.07641601599999999,4.4227753,1
1958,8.084518,0.01574707,4.5388947,1
1959,8.290421,0.19891357,4.4227753,1
1960,8.310760499999999,0.36889648,4.3258057,1
1961,8.314362,0.3964386,4.304260299999999,1
1962,8.237747,0.27792358,4.2827150000000005,1
1963,8.238937,0.20610046,4.2695465,1
1964,8.316742,0.24559021,4.1139220000000005,1
1965,8.371811,0.28630066,4.160614,1
1966,8.435257,0.1725769,4.0564575,1
1967,8.423294,-0.074035645,4.009780999999999,1
1968,8.317947,-0.14585876,4.0397034,1
1969,8.399353,0.02772522,3.9606934000000003,1
1970,8.479553,0.24320984,3.6123352,1
1971,8.532227,0.3509369,3.3836823,1
1972,8.696228,0.30784607,3.3669279999999997,1
1973,8.808762,0.16897583,3.3884735,1
1974,8.7812195,0.093566895,3.4746704,1
1975,8.607650999999999,0.033706665,3.3669279999999997,1
1976,8.489136,-0.24401855,3.0856169999999996,1
1977,8.607650999999999,-0.64624023,3.0509033,1
1978,8.74292,-0.78990173,3.1610259999999997,1
1979,8.732147,-0.4954071,3.4471436,1
1980,8.697433,-0.11352539,3.2939148,1
1981,8.933258,0.03012085,2.809082,1
1982,9.080505,-0.04170227,2.5529022,1
1983,9.012267999999999,-0.19013977,2.60437,1
1984,8.860229499999999,-0.16261292,2.9323883,1
1985,8.711791999999999,-0.023742676,3.0401154,1
1986,8.860229499999999,-0.038116455,2.698944,1
1987,8.906921,-0.12908936,2.321869,1
1988,8.910507,-0.28112793,2.0920104999999998,1
1989,8.90094,-0.31584167,2.2129211,1
1990,8.896149000000001,-0.35774229999999996,2.314682,1
1991,9.00029,-0.28710938,2.1303252999999995,1
1992,9.325911999999999,-0.054870605,1.7987213,1
1993,9.444412,0.060043335,1.3677673000000001,1
1994,9.443222,-0.030929565,1.3869323999999998,1
1995,9.234924000000001,-0.0105896,1.7113342,1
1996,9.075714,0.05406189,1.8777313000000002,1
1997,9.072113,0.03970337,1.8071136000000003,1
1998,8.875793,0.08758545,1.7711945,1
1999,8.76207,0.14384460000000002,1.7245026,1
2000,9.024231,-0.05128479,1.686203,1
2001,9.312744,-0.46308900000000003,1.7257080000000002,1
2002,9.473145,-1.155014,2.0920104999999998,1
2003,9.13916,-1.2424011000000001,2.2763672,1
2004,8.704605,-1.0460815,2.2847443,1
2005,8.744110000000001,-0.85214233,2.3853150000000003,1
2006,8.938049000000001,-0.6067352,2.1147614,1
2007,9.148727000000001,-0.39126587,1.9423828,1
2008,9.216965,-0.37210083,1.543747,1
2009,8.971558,-0.27514648,1.3713684,1
2010,8.977554,-0.1590271,1.5174103,1
2011,9.146347,-0.40203857,1.4755096,1
2012,9.240905999999999,-0.70370483,1.0517426,1
2013,9.324707,-0.7276459,0.5776825,1
2014,9.184647,-0.36611938,0.55374146,1
2015,9.166687,-0.078811646,0.7799988,1
2016,9.236130000000001,-0.14704895,0.85661316,1
2017,9.287598,-0.4439392,0.7979584,1
2018,9.25528,-0.72525024,0.721344,1
2019,9.273239,-0.76834106,0.686615,1
2020,9.257675,-0.6474456999999999,0.7069701999999999,1
2021,8.996704,-0.35176086,0.7045746,1
2022,9.102051,-0.11592102,0.5178375,1
2023,9.385757,0.16897583,0.15510559,1
2024,9.341461,0.50416565,-0.15135193,1
2025,9.210983,0.29467773,0.32270813,1
2026,9.164291,-0.124313354,0.49269104,1
2027,9.212173,-0.5827941999999999,0.87576294,1
2028,9.086487,-0.9443207,1.0002594,1
2029,9.149933,-1.036499,0.8218994000000001,1
2030,9.515044999999999,-1.2531738000000001,0.35144043,1
2031,9.798767,-1.6087189,0.028213501000000002,1
2032,9.511459,-1.8577118000000001,-0.47216797,1
2033,9.116408999999999,-1.8361664,-1.0467834,1
2034,8.905716,-1.6697693,-1.3460541000000001,1
2035,8.862625,-1.5692138999999998,-1.1712798999999998,1
2036,9.202606,-1.7774963,-1.0743103,1
2037,9.470749,-2.0265044999999997,-1.1197968,1
2038,9.213379,-2.3317566000000003,-1.2299347,1
2039,8.963181,-2.4766082999999997,-1.1210022,1
2040,8.917694000000001,-2.3473206,-1.155716,1
2041,9.009872,-1.8409423999999999,-1.0767058999999999,1
2042,9.495894999999999,-1.6290588,-0.8492584000000001,1
2043,9.937622,-1.6051178,-1.0144653000000001,1
2044,9.761642,-1.5392761000000001,-1.416687,1
2045,9.833480999999999,-1.2747191999999998,-1.2395171999999999,1
2046,10.021423,-1.210083,-0.9186859,1
2047,9.823898,-1.5117493,-0.630188,1
2048,8.867416,-1.546463,-0.40274048,1
2049,8.076126,-0.7491913,-0.47816467,1
2050,8.717773,0.37487793,-0.5942688,1
2051,8.701019,1.1158905000000001,-0.99650574,1
2052,8.525039999999999,0.43354797,-1.0084686,1
2053,8.924881,-0.6689911000000001,-1.3424683000000002,1
2054,8.802764999999999,-0.8581238000000001,-1.7985535,1
2055,8.950012,-0.5337219,-1.6632843000000002,1
2056,10.764816,0.091171265,-1.3197173999999998,1
2057,11.068878,0.7902832,-1.5603333000000001,1
2058,10.500259,0.35932922,-0.61343384,1
2059,10.327881,-0.33259583,1.0708923000000001,1
2060,9.92804,-0.9622803,1.291153,1
2061,8.927277,-1.5273132,0.40769958,1
2062,8.191055,-1.4842072,0.15510559,1
2063,8.016281,-0.30986023,0.64112854,1
2064,8.480758999999999,0.98420715,0.9200591999999999,1
2065,10.060928,1.2391968,0.48431396,1
2066,11.715317,0.6825409,0.30354309999999995,1
2067,10.834259,0.050476074,-0.9007415999999999,1
2068,8.612427,-0.07522583,-1.574707,1
2069,8.07254,0.40481567,-1.3592224,1
2070,8.085709,1.2631378,-0.99290466,1
2071,8.055786,2.2435607999999996,-0.7008209,1
2072,7.976775999999999,2.5703735,-1.6285706,1
2073,8.264084,1.8700561999999998,-2.625763,1
2074,8.513077000000001,2.0364532,-1.1210022,1
2075,7.652359,3.0432281000000003,-0.36083984,1
2076,6.94487,3.6106415000000003,0.13954163,1
2077,6.2876587,3.1425781,-0.073532104,1
2078,6.0865480000000005,2.2315826000000003,-0.24113464,1
2079,7.3782195999999995,2.2818604,-1.0707245,1
2080,9.668274,3.2323607999999995,-0.86361694,1
2081,11.126342999999999,4.1313934,-1.3101501,1
2082,11.108383,4.2582855,-1.7674408,1
2083,11.267609,2.9175262,-1.3113403000000001,1
2084,11.413650500000001,1.0416718,-0.6876526,1
2085,10.376953,0.0061798096,-0.39675903,1
2086,9.122391,0.41558838,0.25447083,1
2087,8.454422000000001,1.4151611000000002,0.923645,1
2088,7.865448,1.9227294999999998,0.9799041999999999,1
2089,7.524261500000001,1.5145263999999998,1.073288,1
2090,7.861847,1.1051178,0.80992126,1
2091,8.410126,0.8273925999999999,0.43643188,1
2092,8.971558,0.72683716,0.40530396,1
2093,9.125992,0.59754944,0.54177856,1
2094,9.166687,0.2695465,0.77041626,1
2095,9.260071,-0.02015686,1.097229,1
2096,9.476746,-0.39604187,1.3091125,1
2097,9.805939,-0.61631775,1.6215515,1
2098,9.790375,-0.6761626999999999,1.6143798999999999,1
2099,9.688628999999999,-0.78271484,1.3857268999999999,1
2100,9.694611,-0.88446045,1.3510132,1
2101,9.505478,-1.0975494,1.8035126,1
2102,9.130783000000001,-0.9539032,2.1303252999999995,1
2103,8.824326,-0.6474456999999999,2.0585022,1
2104,8.876999,-0.26914978,1.8549957,1
2105,9.002686,-0.09197998,1.5545197,1
2106,9.044586,-0.36253357,1.5006561,1
2107,8.922485,-0.9395294,1.6873932,1
2108,8.868607,-1.2747191999999998,1.7460631999999998,1
2109,8.909317,-1.5273132,1.8669586,1
2110,9.331894,-1.2723236,1.8633727999999998,1
2111,9.687424,-0.86531067,1.6047973999999998,1
2112,9.71257,-0.53970337,1.2887573,1
2113,9.541382,-0.29429626,1.1774292,1
2114,9.09845,-0.34217834,1.3809357,1
2115,8.662704,-0.6498413000000001,1.5389556999999998,1
2116,8.526245,-0.90960693,1.7544403000000002,1
2117,8.788406,-0.9036255,1.928009,1
2118,9.196625,-0.87968445,1.8370361000000002,1
2119,9.418076,-0.85572815,1.8226776000000002,1
2120,9.357025,-0.76475525,1.9687195,1
2121,9.14035,-0.55766296,2.180603,1
2122,9.019455,-0.38168335,2.235672,1
2123,9.012267999999999,-0.17098999,2.2332764,1
2124,9.07811,-0.02734375,2.1207428,1
2125,9.026627000000001,0.112716675,2.0166016,1
2126,8.890167,0.34495544,2.01062,1
2127,8.764465,0.65979004,2.1183472,1
2128,8.861435,0.89801025,1.9782866999999997,1
2129,8.945221,0.833374,1.9004822000000001,1
2130,9.091277999999999,0.5568390000000001,1.8346405,1
2131,9.085281,0.16539001,1.7053528000000002,1
2132,8.915298,-0.23564148,1.5186005,1
2133,9.093674,-0.2715454,1.8274536,1
2134,9.327103,0.052871704000000005,1.9423828,1
2135,9.267242,0.50416565,1.9579468,1
2136,8.935654,0.8166199000000001,1.804718,1
2137,8.592087,0.8740691999999999,1.7640076,1
2138,8.429275500000001,0.7519684,1.9399872,1
2139,8.552582000000001,0.5065613,2.0968018,1
2140,8.969161999999999,0.22164917,1.9842833999999998,1
2141,9.325911999999999,-0.0728302,1.7281036,1
2142,9.616806,-0.11592102,1.6598663,1
2143,9.592865,0.028915405,1.7592316000000003,1
2144,9.391739,0.17497253,1.8609772,1
2145,9.125992,0.1845398,1.9399872,1
2146,8.850662,0.09236145,1.9603423999999998,1
2147,8.734542999999999,-0.02255249,1.9962463,1
2148,8.734542999999999,0.06602478,2.0740662,1
2149,8.905716,0.26235962,1.9842833999999998,1
2150,9.09845,0.38565063,1.9076691000000003,1
2151,9.205002,0.34136963,1.9184418,1
2152,9.208588,0.35214233,1.9100647000000002,1
2153,9.163101,0.23721313,1.962738,1
2154,9.093674,0.08039856,1.8885040000000002,1
2155,8.966782,0.024139404,1.8274536,1
2156,8.932053,0.043289185,1.8370361000000002,1
2157,9.0182495,0.14982605,1.9292145,1
2158,9.031417999999999,0.22764587,1.9962463,1
2159,8.985930999999999,0.27432249999999997,1.928009,1
2160,8.985930999999999,0.28988647,1.9986419999999998,1
2161,9.002686,0.25637817,2.062088,1
2162,9.050568,0.14144897,2.1722259999999998,1
2163,9.106842,0.06364441,2.1937714,1
2164,9.0733185,0.007369995,2.2416534,1
2165,8.987122,0.024139404,2.204544,1
2166,8.950012,0.115112305,2.2009583,1
2167,8.926071,0.18814087,2.2153167999999996,1
2168,8.970367,0.20610046,2.1638488999999996,1
2169,9.055359,0.20848083,2.1351166,1
2170,9.118805,0.13665771,2.1542664,1
2171,9.160706,0.11392212,2.1722259999999998,1
2172,9.142746,0.13665771,2.1267395000000002,1
2173,9.0182495,0.16419983,2.1387023999999997,1
2174,8.909317,0.11392212,2.0716705,1
2175,8.837494,0.11392212,2.1446838,1
2176,8.827911,0.12109375,2.1279297,1
2177,8.967972,0.115112305,2.1925812000000002,1
2178,9.043396000000001,0.117507935,2.156662,1
2179,9.002686,0.22525024,2.1075744999999997,1
2180,8.959595,0.25398254,2.1123657000000002,1
2181,9.006287,0.16778564,2.1351166,1
2182,9.045776,0.05645752,2.1375122,1
2183,9.039795,-0.03691101,2.0920104999999998,1
2184,8.995499,0.007369995,2.1279297,1
2185,9.033813,0.110321045,2.2524261,1
2186,9.024231,0.18693542,2.26799,1
2187,8.953613,0.16897583,2.2787627999999995,1
2188,8.881775,0.25277710000000003,2.282364,1
2189,8.946425999999999,0.34495544,2.314682,1
2190,8.960785000000001,0.40960693,2.3326416,1
2191,9.019455,0.45149229999999996,2.326645,1
2192,8.955994,0.30784607,2.26799,1
2193,8.886566,0.19293213,2.3254547000000003,1
2194,8.912903,0.19293213,2.3338318,1
2195,8.976349,0.16539001,2.2572174,1
2196,9.041,0.16419983,2.1147614,1
2197,9.015854,0.12469482400000001,2.0417328,1
2198,9.058945,0.112716675,2.1063842999999998,1
2199,9.019455,0.06842041,2.220108,1
2200,8.934448,-0.028533936,2.323059,1
2201,8.888962,-0.090789795,2.4044647,1
2202,8.862625,-0.0728302,2.5277557,1
2203,8.896149000000001,0.062438965,2.4894562000000002,1
2204,8.908112,0.13426208,2.4631195,1
2205,8.887772,0.19293213,2.3984832999999997,1
2206,8.957199000000001,0.1845398,2.3769226000000003,1
2207,8.983536,0.1845398,2.3493958,1
2208,9.012267999999999,0.21806335,2.2967223999999997,1
2209,9.027832,0.26715088,2.2967223999999997,1
2210,9.014664,0.28630066,2.2404632999999996,1
2211,9.013458,0.26715088,2.2344666,1
2212,8.987122,0.30784607,2.2021484,1
2213,9.008666999999999,0.299469,2.1351166,1
2214,8.996704,0.27552795,2.1638488999999996,1
2215,9.00029,0.28630066,2.2129211,1
2216,9.06134,0.28630066,2.2117310000000003,1
2217,9.035003999999999,0.24081421,2.1638488999999996,1
2218,8.92128,0.20610046,2.2117310000000003,1
2219,8.879379,0.26115417,2.2739716,1
2220,8.941635,0.26475525,2.3003082000000004,1
2221,9.050568,0.30665588,2.2404632999999996,1
2222,9.055359,0.27671814,2.2225037,1
2223,8.952408,0.23960876,2.3158722000000003,1
2224,8.957199000000001,0.17137146,2.3577728,1
2225,8.90213,0.11152649,2.3948822,1
2226,8.859039,0.117507935,2.3122863999999996,1
2227,8.908112,0.16778564,2.3314362,1
2228,8.985930999999999,0.22164917,2.3565826000000003,1
2229,9.064941000000001,0.27552795,2.3769226000000003,1
2230,9.0577545,0.23602295,2.3589783,1
2231,8.948822,0.21087646,2.3936919999999997,1
2232,8.869812,0.1953125,2.4475555,1
2233,8.890167,0.23721313,2.4308014,1
2234,8.753693,0.33776855,2.3553772,1
2235,8.726150500000001,0.3964386,2.409256,1
2236,8.738128999999999,0.4072113,2.3709412,1
2237,8.861435,0.44432068,2.3601685000000003,1
2238,8.987122,0.49578857,2.3170776,1
2239,9.100845,0.48262024,2.2093353,1
2240,9.086487,0.5089569,2.2105255,1
2241,8.940445,0.52212524,2.2668,1
2242,8.844666,0.57121277,2.3194733,1
2243,8.944030999999999,0.6442260999999999,2.1985626,1
2244,8.994308,0.6442260999999999,2.1147614,1
2245,8.991913,0.5592345999999999,2.1578522,1
2246,8.96199,0.46347046,2.1399077999999996,1
2247,8.991913,0.35572815,2.1387023999999997,1
2248,8.927277,0.37129209999999996,2.0872345,1
2249,8.983536,0.41319275,2.1997527999999997,1
2250,9.068527,0.43473816,2.1937714,1
2251,9.082901,0.3796692,2.2404632999999996,1
2252,9.062546000000001,0.29826355,2.2847443,1
2253,9.003891000000001,0.27552795,2.350586,1
2254,8.90094,0.38206482,2.3793182,1
2255,8.855438000000001,0.47065735,2.3685455,1
2256,8.863831,0.5161438,2.3757324,1
2257,8.849457000000001,0.49699402,2.4008636,1
2258,8.903336,0.47184753,2.3972778,1
2259,8.976349,0.35693359999999996,2.3757324,1
2260,8.966782,0.30665588,2.3601685000000003,1
2261,8.960785000000001,0.24440002,2.378128,1
2262,8.939239500000001,0.10673523,2.44516,1
2263,8.936844,0.069625854,2.4272002999999995,1
2264,8.988327,0.07202148400000001,2.4559326,1
2265,8.939239500000001,0.088775635,2.516983,1
2266,8.915298,0.12828064,2.587616,1
2267,8.892548,0.11392212,2.5828247,1
2268,8.88298,0.19293213,2.5864257999999998,1
2269,8.863831,0.24200439999999998,2.587616,1
2270,8.917694000000001,0.33059692,2.548111,1
2271,8.875793,0.35214233,2.579239,1
2272,8.82312,0.3904419,2.5445251,1
2273,8.848267,0.38804626,2.5445251,1
2274,8.825516,0.34854126,2.484665,1
2275,8.888962,0.27192688,2.501419,1
2276,8.876999,0.23123169,2.4523467999999995,1
2277,8.899734500000001,0.24081421,2.4511414,1
2278,8.9991,0.23123169,2.3889007999999996,1
2279,8.929672,0.20130920000000002,2.3565826000000003,1
2280,8.861435,0.19172668,2.4559326,1
2281,8.884171,0.2695465,2.5062103,1
2282,8.960785000000001,0.32580566,2.472702,1
2283,9.020645,0.32101440000000003,2.4822693,1
2284,8.927277,0.34136963,2.472702,1
2285,8.82312,0.31143188,2.4331970000000003,1
2286,8.795592999999998,0.34616090000000005,2.516983,1
2287,8.797989,0.39881897,2.4798737,1
2288,8.855438000000001,0.41319275,2.4894562000000002,1
2289,8.970367,0.38804626,2.4583282000000004,1
2290,8.991913,0.36051940000000005,2.4427642999999994,1
2291,8.964386,0.31861877,2.4439697,1
2292,8.911713,0.28390503,2.4738922000000003,1
2293,8.831497,0.2240448,2.4750977,1
2294,8.866211,0.22883606,2.4990387000000003,1
2295,8.909317,0.23242188,2.5469207999999997,1
2296,8.933258,0.22883606,2.548111,1
2297,8.959595,0.21687317,2.5457153,1
2298,8.965575999999999,0.21566772,2.4607238999999996,1
2299,8.875793,0.2132721,2.5421294999999997,1
2300,8.833893,0.1797638,2.6007842999999995,1
2301,8.845871,0.19651794,2.5744476,1
2302,8.946425999999999,0.26475525,2.5708618,1
2303,8.959595,0.27313232,2.5086060000000003,1
2304,9.013458,0.29467773,2.4954376,1
2305,8.944030999999999,0.3677063,2.4691009999999998,1
2306,8.944030999999999,0.4287567,2.5157928,1
2307,8.80397,0.45509338,2.5672607000000003,1
2308,8.650742,0.5017699999999999,2.60318,1
2309,8.735733,0.49459840000000005,2.6079712,1
2310,8.847061,0.37727356,2.563675,1
2311,8.782425,0.15580750000000002,2.7480316000000005,1
2312,8.7608795,-0.102752686,2.8426056,1
2313,8.914108,-0.20809937,2.912033,1
2314,9.080505,-0.14704895,2.8629456,1
2315,9.087677000000001,0.021743774,2.7468262,1
2316,8.916504,0.15940857,2.7743683,1
2317,8.666306,0.20130920000000002,2.8545685,1
2318,8.493927000000001,0.13426208,2.915619,1
2319,8.612427,0.11631775,2.9395599999999997,1
2320,8.705811,0.21087646,2.8773193,1
2321,8.855438000000001,0.27313232,2.7947235,1
2322,8.916504,0.33776855,2.7300720000000003,1
2323,8.918884,0.53289795,2.6079712,1
2324,8.884171,0.54966736,2.5935973999999997,1
2325,8.886566,0.58917236,2.5744476,1
2326,8.837494,0.46705627,2.5660706,1
2327,8.76207,0.28390503,2.575653,1
2328,8.753693,0.14025879,2.6127625,1
2329,8.829102,0.12709045,2.6007842999999995,1
2330,8.955994,0.107925415,2.6319122000000004,1
2331,9.011063,0.07081604,2.6175384999999998,1
2332,9.067337,0.033706665,2.6139526,1
2333,9.031417999999999,0.09715271,2.6139526,1
2334,8.984726,0.14624023,2.595993,1
2335,8.82193,0.29588318,2.6067657000000004,1
2336,8.752487,0.37249756,2.6079712,1
2337,8.794388,0.40481567,2.6414948,1
2338,8.830307000000001,0.38565063,2.6319122000000004,1
2339,8.872208,0.34616090000000005,2.658249,1
2340,8.847061,0.3904419,2.6929626,1
2341,8.942825,0.4766388,2.6259308,1
2342,8.90094,0.45509338,2.5612793,1
2343,8.772842,0.4012146,2.6474762000000003,1
2344,8.7656555,0.33418274,2.7348632999999998,1
2345,8.811157000000001,0.25517273,2.7683868,1
2346,8.880585,0.21806335,2.8018951000000003,1
2347,8.890167,0.20370483,2.8222504,1
2348,8.802764999999999,0.17855835,2.8198547,1
2349,8.775238,0.24679565,2.8497772,1
2350,8.744110000000001,0.26475525,2.8497772,1
2351,8.72377,0.30784607,2.872528,1
2352,8.774047999999999,0.33657837,2.8593597,1
2353,8.859039,0.4084015,2.8581696,1
2354,8.880585,0.40361023,2.8054962000000003,1
2355,8.748901,0.35932922,2.8150635,1
2356,8.754883,0.31622314,2.8641509999999997,1
2357,8.714188,0.30305479999999996,2.86055,1
2358,8.745316,0.299469,2.8473816000000003,1
2359,8.790802000000001,0.34376526,2.8258362,1
2360,8.885375999999999,0.4299469,2.7743683,1
2361,8.915298,0.47305298,2.6498717999999997,1
2362,8.863831,0.4407196,2.6630402,1
2363,8.772842,0.34495544,2.7133179,1
2364,8.705811,0.25517273,2.7719727,1
2365,8.756088,0.15701294,2.8054962000000003,1
2366,8.811157000000001,0.08998108,2.7719727,1
2367,8.876999,0.08998108,2.7863312000000002,1
2368,8.868607,0.20370483,2.817459,1
2369,8.909317,0.28271484,2.7755585,1
2370,8.884171,0.32580566,2.7575988999999996,1
2371,8.756088,0.2240448,2.8665466,1
2372,8.720169,0.1953125,2.9252013999999997,1
2373,8.799178999999999,0.1725769,2.7959137000000003,1
2374,8.7608795,0.17137146,2.7719727,1
2375,8.736938,0.10913086,2.876114,1
2376,8.790802000000001,0.0756073,2.9527283,1
2377,8.896149000000001,0.069625854,2.9168243,1
2378,8.923675999999999,0.112716675,2.7947235,1
2379,8.849457000000001,0.09954834,2.7959137000000003,1
2380,8.7608795,0.07800293,2.8270416000000003,1
2381,8.668700999999999,0.083984375,2.9048462,1
2382,8.729752000000001,0.15701294,2.9096375,1
2383,8.865021,0.2348175,2.8390044999999997,1
2384,8.969161999999999,0.25038147,2.8354187,1
2385,8.965575999999999,0.23123169,2.7743683,1
2386,8.835098,0.20729065,2.792328,1
2387,8.702209,0.16897583,2.8258362,1
2388,8.663910000000001,0.15461731,2.9419556,1
2389,8.709396,0.16059875,2.994629,1
2390,8.7656555,0.14025879,2.9144287,1
2391,8.857834,0.14263916,2.9168243,1
2392,8.876999,0.14743042,2.8916779,1
2393,8.838683999999999,0.20489502,2.9048462,1
2394,8.771652,0.15820313,2.9204102,1
2395,8.7213745,0.15701294,2.9299927,1
2396,8.730942,0.17736816,2.9467467999999997,1
2397,8.82193,0.19891357,2.879715,1
2398,8.82312,0.14025879,2.8677368,1
2399,8.8003845,0.10314941400000001,2.8450012000000005,1
2400,8.838683999999999,0.10194397,2.8222504,1
2401,8.854248,0.06124878,2.8138732999999996,1
2402,8.845871,0.016952515,2.8234406,1
2403,8.797989,0.04927063,2.8437957999999997,1
2404,8.874603,0.117507935,2.8450012000000005,1
2405,8.896149000000001,0.14743042,2.6917725,1
2406,8.799178999999999,0.081588745,2.7623901,1
2407,8.746506,0.15222168,2.8437957999999997,1
2408,8.7764435,0.19770813,2.876114,1
2409,8.832703,0.23841858,2.872528,1
2410,8.801575,0.23960876,2.879715,1
2411,8.7764435,0.23242188,2.8497772,1
2412,8.7764435,0.22164917,2.8342132999999996,1
2413,8.797989,0.18214417,2.8258362,1
2414,8.881775,0.19651794,2.8306273999999996,1
2415,8.844666,0.20249939,2.8102722,1
2416,8.857834,0.17736816,2.8450012000000005,1
2417,8.797989,0.13905334,2.8509827000000003,1
2418,8.726150500000001,0.1510315,2.8533783,1
2419,8.7656555,0.14144897,2.8557740000000003,1
2420,8.819533999999999,0.22764587,2.8821106,1
2421,8.857834,0.19651794,2.879715,1
2422,8.8003845,0.20489502,2.888092,1
2423,8.766861,0.19412231,2.8809052000000004,1
2424,8.7812195,0.19891357,2.8461914,1
2425,8.84108,0.2132721,2.871338,1
2426,8.848267,0.19293213,2.84021,1
2427,8.813553,0.21208191,2.8701324,1
2428,8.775238,0.1905365,2.8677368,1
2429,8.7656555,0.18814087,2.8617554,1
2430,8.791992,0.23362732,2.8258362,1
2431,8.812347,0.20968628,2.856964,1
2432,8.844666,0.20010376,2.8581696,1
2433,8.854248,0.12348938,2.8785095000000003,1
2434,8.7812195,0.14384460000000002,2.9383698,1
2435,8.739319,0.22525024,2.9180145,1
2436,8.861435,0.2192688,2.8186646,1
2437,8.80397,0.18334961,2.7252807999999997,1
2438,8.789597,0.16778564,2.8234406,1
2439,8.843475,0.19412231,2.9096375,1
2440,8.850662,0.22164917,2.9048462,1
2441,8.887772,0.24679565,2.8354187,1
2442,8.829102,0.23602295,2.8426056,1
2443,8.716583,0.17137146,2.86055,1
2444,8.738128999999999,0.17497253,2.8414001,1
2445,8.7812195,0.14263916,2.8737182999999997,1
2446,8.824326,0.15342712,2.9144287,1
2447,8.855438000000001,0.21087646,2.9048462,1
2448,8.855438000000001,0.21566772,2.8473816000000003,1
2449,8.808762,0.2192688,2.9024506000000003,1
2450,8.750107,0.18814087,2.895279,1
2451,8.775238,0.21447754,2.8665466,1
2452,8.790802000000001,0.19891357,2.86055,1
2453,8.806366,0.19651794,2.888092,1
2454,8.806366,0.18095398,2.9048462,1
2455,8.825516,0.21087646,2.8845062,1
2456,8.848267,0.259964,2.8749237,1
2457,8.837494,0.2192688,2.8354187,1
2458,8.819533999999999,0.27552795,2.817459,1
2459,8.8003845,0.2922821,2.8856964,1
2460,8.797989,0.33059692,2.8509827000000003,1
2461,8.797989,0.36410522,2.7827453999999996,1
2462,8.764465,0.3282013,2.8653412,1
2463,8.769257000000001,0.25637817,2.9503326000000003,1
2464,8.7764435,0.115112305,2.9647064,1
2465,8.76207,0.028915405,2.9934387000000005,1
2466,8.718979,0.036102295,3.0006104,1
2467,8.871002,0.14144897,2.9407654,1
2468,8.918884,0.21208191,2.8031006,1
2469,8.831497,0.1797638,2.8378143,1
2470,8.8003845,0.13067627,2.8809052000000004,1
2471,8.794388,0.10913086,2.9323883,1
2472,8.715378,0.07800293,3.0101929,1
2473,8.656723,0.045684814000000004,3.0808258,1
2474,8.635178,0.06602478,3.1035614,1
2475,8.687851,0.18334961,3.0676575,1
2476,8.8003845,0.21806335,3.006607,1
2477,8.853058,0.26594543,2.991043,1
2478,8.861435,0.25398254,2.9503326000000003,1
2479,8.813553,0.2300415,2.9395599999999997,1
2480,8.696228,0.2803192,2.9539337000000003,1
2481,8.641159,0.24320984,3.0137787,1
2482,8.72377,0.1953125,3.0293427000000004,1
2483,8.812347,0.14263916,3.0018158,1
2484,8.839889999999999,0.09715271,2.958725,1
2485,8.818328999999999,0.07202148400000001,2.923996,1
2486,8.780028999999999,0.11152649,2.9623107999999996,1
2487,8.7656555,0.13546753,2.9778748,1
2488,8.782425,0.18214417,2.9036560000000002,1
2489,8.771652,0.22045898,2.8868866,1
2490,8.7812195,0.27192688,2.8809052000000004,1
2491,8.797989,0.25637817,2.888092,1
2492,8.799178999999999,0.28988647,2.9036560000000002,1
2493,8.817139,0.259964,2.9311828999999996,1
2494,8.820724499999999,0.24559021,2.9395599999999997,1
2495,8.774047999999999,0.16539001,2.9850616000000003,1
2496,8.720169,0.13665771,3.0389252,1
2497,8.656723,0.17855835,3.034134,1
2498,8.763275,0.21687317,2.9886475,1
2499,8.838683999999999,0.21447754,2.8773193,1
2500,8.753693,0.1797638,2.8521729,1
2501,8.744110000000001,0.20489502,2.927597,1
2502,8.853058,0.24200439999999998,2.91922,1
2503,8.881775,0.24081421,2.943161,1
2504,8.808762,0.25398254,2.9204102,1
2505,8.74292,0.18933105,2.8856964,1
2506,8.724960000000001,0.23721313,2.8845062,1
2507,8.782425,0.24320984,2.9012604,1
2508,8.835098,0.1510315,2.9216156000000004,1
2509,8.806366,0.13546753,2.9575195,1
2510,8.797989,0.1725769,2.9802703999999998,1
2511,8.771652,0.21087646,2.9814606,1
2512,8.711791999999999,0.22644043,2.9862518,1
2513,8.698624,0.24679565,3.0365295,1
2514,8.790802000000001,0.19891357,3.006607,1
2515,8.784821,0.2192688,2.9491425,1
2516,8.788406,0.24559021,2.9658966,1
2517,8.790802000000001,0.28509520000000005,2.9287872000000004,1
2518,8.756088,0.34136963,2.9216156000000004,1
2519,8.726150500000001,0.29109192,2.9371642999999996,1
2520,8.752487,0.2695465,2.943161,1
2521,8.777633999999999,0.20130920000000002,2.9096375,1
2522,8.794388,0.15461731,2.9024506000000003,1
2523,8.790802000000001,0.14384460000000002,2.91922,1
2524,8.754883,0.18334961,2.994629,1
2525,8.793198,0.2348175,2.9730835,1
2526,8.808762,0.28271484,2.9359741,1
2527,8.824326,0.28390503,2.9144287,1
2528,8.752487,0.27911377,2.9323883,1
2529,8.750107,0.29348755,2.9479523,1
2530,8.827911,0.31263733,2.8593597,1
2531,8.795592999999998,0.24200439999999998,2.8210450000000002,1
2532,8.7608795,0.24919128,2.8497772,1
2533,8.806366,0.24919128,2.9706879,1
2534,8.848267,0.24440002,2.982666,1
2535,8.82193,0.22883606,2.9886475,1
2536,8.720169,0.28390503,2.9682922,1
2537,8.724960000000001,0.24559021,2.9359741,1
2538,8.699814,0.26475525,2.9623107999999996,1
2539,8.778824,0.26115417,2.895279,1
2540,8.831497,0.25756836,2.9287872000000004,1
2541,8.830307000000001,0.25517273,2.927597,1
2542,8.84227,0.30665588,2.9180145,1
2543,8.720169,0.2707367,2.915619,1
2544,8.641159,0.21566772,2.9359741,1
2545,8.654327,0.23721313,2.9036560000000002,1
2546,8.791992,0.21687317,2.9407654,1
2547,8.794388,0.22764587,2.833023,1
2548,8.865021,0.23123169,2.9299927,1
2549,8.825516,0.21208191,3.0520935000000002,1
2550,8.796783,0.16539001,3.0509033,1
2551,8.758484,0.18095398,3.0365295,1
2552,8.770447,0.20848083,2.9790650000000003,1
2553,8.819533999999999,0.23362732,2.9479523,1
2554,8.778824,0.20729065,2.8928833,1
2555,8.7417145,0.14384460000000002,2.927597,1
2556,8.739319,0.14982605,2.991043,1
2557,8.8051605,0.14624023,2.9754791000000003,1
2558,8.872208,0.16778564,3.0006104,1
2559,8.757278,0.20249939,2.991043,1
2560,8.678268,0.18693542,3.0113982999999998,1
2561,8.795592999999998,0.20370483,2.9718932999999996,1
2562,8.814743,0.20968628,2.8354187,1
2563,8.747711,0.17376709,2.7755585,1
2564,8.782425,0.14863586,2.8916779,1
2565,8.831497,0.16897583,3.01857,1
2566,8.833893,0.20489502,3.030548,1
2567,8.770447,0.22285461,2.9994202000000003,1
2568,8.698624,0.29826355,2.9778748,1
2569,8.6651,0.27432249999999997,2.9311828999999996,1
2570,8.757278,0.29826355,2.8868866,1
2571,8.818328999999999,0.29467773,2.8964689999999997,1
2572,8.849457000000001,0.2515869,2.9287872000000004,1
2573,8.856644000000001,0.24440002,2.8773193,1
2574,8.788406,0.23602295,2.9335785,1
2575,8.729752000000001,0.26594543,2.934784,1
2576,8.7417145,0.28988647,2.915619,1
2577,8.7608795,0.27192688,2.9479523,1
2578,8.796783,0.259964,2.934784,1
2579,8.7656555,0.26115417,2.9287872000000004,1
2580,8.783615,0.26594543,2.9611206,1
2581,8.770447,0.28271484,2.955124,1
2582,8.7213745,0.2803192,2.9706879,1
2583,8.735733,0.32101440000000003,3.0101929,1
2584,8.766861,0.36410522,2.9886475,1
2585,8.751297000000001,0.43115234,2.9527283,1
2586,8.766861,0.5017699999999999,2.912033,1
2587,8.739319,0.45269775,2.9443512000000003,1
2588,8.746506,0.38446045,2.9335785,1
2589,8.730942,0.30665588,2.9419556,1
2590,8.780028999999999,0.2348175,2.963501,1
2591,8.771652,0.11392212,3.0077972,1
2592,8.757278,0.20848083,3.0221709999999997,1
2593,8.814743,0.26834106,2.9359741,1
2594,8.791992,0.31982422,2.8198547,1
2595,8.718979,0.2922821,2.912033,1
2596,8.745316,0.21447754,2.994629,1
2597,8.775238,0.14144897,3.0473022000000003,1
2598,8.766861,0.16419983,3.073639,1
2599,8.729752000000001,0.12469482400000001,3.0449066000000005,1
2600,8.730942,0.11631775,3.0197754,1
2601,8.714188,0.1725769,3.0173798,1
2602,8.750107,0.19293213,3.0161743,1
2603,8.794388,0.18693542,3.0951842999999997,1
2604,8.766861,0.100753784,3.0808258,1
2605,8.722565,0.117507935,3.058075,1
2606,8.663910000000001,0.13426208,3.1071625,1
2607,8.675873,0.17018127,3.1334991000000003,1
2608,8.710602,0.1725769,3.1203307999999996,1
2609,8.736938,0.16419983,3.0712433,1
2610,8.772842,0.14384460000000002,3.030548,1
2611,8.726150500000001,0.15940857,3.09758,1
2612,8.707001,0.16059875,3.0808258,1
2613,8.724960000000001,0.1845398,3.1167297,1
2614,8.679474,0.17137146,3.121521,1
2615,8.709396,0.14743042,3.0544891,1
2616,8.783615,0.17616272,3.0640563999999997,1
2617,8.768051,0.19412231,3.1131439999999997,1
2618,8.780028999999999,0.15461731,3.101181,1
2619,8.724960000000001,0.15461731,3.09758,1
2620,8.698624,0.18334961,3.0748444,1
2621,8.720169,0.14624023,3.1155396,1
2622,8.733336999999999,0.19891357,3.1358947999999995,1
2623,8.678268,0.16659546,3.1095580000000003,1
2624,8.717773,0.16539001,3.1526490000000003,1
2625,8.783615,0.16659546,3.0389252,1
2626,8.775238,0.13186646,2.9802703999999998,1
2627,8.72377,0.18095398,3.0796203999999996,1
2628,8.748901,0.20489502,3.0915985,1
2629,8.76207,0.20729065,3.0951842999999997,1
2630,8.754883,0.20489502,3.0832214,1
2631,8.714188,0.20848083,3.0963898,1
2632,8.680664,0.17137146,3.089203,1
2633,8.724960000000001,0.20848083,3.1047667999999997,1
2634,8.702209,0.22164917,3.1227264,1
2635,8.699814,0.21087646,3.1227264,1
2636,8.756088,0.19770813,3.0784302,1
2637,8.771652,0.24200439999999998,3.0233612,1
2638,8.7812195,0.2815094,3.0113982999999998,1
2639,8.717773,0.24320984,3.0281525,1
2640,8.733336999999999,0.23841858,3.0784302,1
2641,8.728546000000001,0.2240448,3.0544891,1
2642,8.715378,0.24559021,3.0700529999999997,1
2643,8.730942,0.24919128,3.0568847999999997,1
2644,8.754883,0.23362732,3.0245667000000003,1
2645,8.739319,0.21087646,3.0413208,1
2646,8.727356,0.20848083,3.0173798,1
2647,8.739319,0.1905365,3.0389252,1
2648,8.705811,0.20489502,3.0269470000000003,1
2649,8.707001,0.18814087,3.0604706000000004,1
2650,8.715378,0.20249939,3.1155396,1
2651,8.729752000000001,0.21447754,3.137085,1
2652,8.739319,0.19412231,3.1813812,1
2653,8.802764999999999,0.15580750000000002,3.1263123,1
2654,8.697433,0.1845398,3.0856169999999996,1
2655,8.642364500000001,0.17497253,3.1550446,1
2656,8.793198,0.21687317,3.0999756,1
2657,8.784821,0.22045898,3.0113982999999998,1
2658,8.689041,0.22285461,3.0209656000000003,1
2659,8.680664,0.25038147,3.1586304,1
2660,8.704605,0.22764587,3.1634216,1
2661,8.774047999999999,0.2707367,3.1418762000000005,1
2662,8.752487,0.26235962,3.1311035,1
2663,8.699814,0.20968628,3.105957,1
2664,8.666306,0.19172668,3.0724487000000003,1
2665,8.7213745,0.18095398,3.1179352000000002,1
2666,8.728546000000001,0.19891357,3.1430664,1
2667,8.736938,0.23960876,3.1071625,1
2668,8.770447,0.26715088,3.1107482999999996,1
2669,8.74292,0.25637817,3.1179352000000002,1
2670,8.698624,0.2803192,3.0915985,1
2671,8.672286999999999,0.2132721,3.101181,1
2672,8.707001,0.20370483,3.1095580000000003,1
2673,8.712982,0.19412231,3.1239166000000003,1
2674,8.712982,0.20968628,3.1514587000000005,1
2675,8.734542999999999,0.19293213,3.128708,1
2676,8.715378,0.23602295,3.1382904,1
2677,8.718979,0.20610046,3.1203307999999996,1
2678,8.72377,0.19891357,3.082016,1
2679,8.716583,0.18214417,3.090393,1
2680,8.746506,0.17018127,3.0987854,1
2681,8.744110000000001,0.16419983,3.1131439999999997,1
2682,8.707001,0.19770813,3.1131439999999997,1
2683,8.729752000000001,0.26115417,3.0939941,1
2684,8.76207,0.21208191,3.066452,1
2685,8.754883,0.16059875,3.0844116,1
2686,8.6651,0.19412231,3.1358947999999995,1
2687,8.707001,0.20848083,3.1311035,1
2688,8.768051,0.21566772,3.030548,1
2689,8.709396,0.20130920000000002,2.9718932999999996,1
2690,8.679474,0.23960876,3.0257568,1
2691,8.7417145,0.24559021,3.105957,1
2692,8.754883,0.23960876,3.1227264,1
2693,8.733336999999999,0.24320984,3.129898,1
2694,8.739319,0.2707367,3.1311035,1
2695,8.722565,0.22164917,3.0951842999999997,1
2696,8.704605,0.22164917,3.037735,1
2697,8.732147,0.22285461,3.0173798,1
2698,8.730942,0.22285461,3.0628662,1
2699,8.764465,0.22045898,3.09758,1
2700,8.759674,0.20848083,3.0688477,1
2701,8.740524,0.22525024,3.0832214,1
2702,8.722565,0.20489502,3.09758,1
2703,8.727356,0.1845398,3.1322937,1
2704,8.727356,0.16059875,3.1586304,1
2705,8.695038,0.15820313,3.1155396,1
2706,8.724960000000001,0.21806335,3.1143494,1
2707,8.7608795,0.19770813,3.0880127,1
2708,8.704605,0.20729065,3.0724487000000003,1
2709,8.695038,0.20010376,3.0760345,1
2710,8.733336999999999,0.25277710000000003,3.0473022000000003,1
2711,8.732147,0.2815094,3.0520935000000002,1
2712,8.756088,0.2515869,3.0604706000000004,1
2713,8.772842,0.19412231,3.0592804,1
2714,8.753693,0.15940857,3.0317382999999998,1
2715,8.704605,0.1845398,3.0473022000000003,1
2716,8.685455000000001,0.22045898,3.1418762000000005,1
2717,8.775238,0.18334961,3.0951842999999997,1
2718,8.704605,0.14503479,3.137085,1
2719,8.704605,0.24320984,3.1143494,1
2720,8.819533999999999,0.27671814,3.0808258,1
2721,8.806366,0.24081421,2.9204102,1
2722,8.697433,0.24559021,2.934784,1
2723,8.674683,0.259964,3.0485077,1
2724,8.717773,0.20370483,3.0844116,1
2725,8.8051605,0.21208191,3.1083527,1
2726,8.786011,0.20848083,3.0987854,1
2727,8.734542999999999,0.20249939,3.046112,1
2728,8.681869500000001,0.18693542,3.0568847999999997,1
2729,8.710602,0.22764587,3.0592804,1
2730,8.709396,0.23721313,3.061676,1
2731,8.714188,0.20489502,3.082016,1
2732,8.802764999999999,0.2192688,3.1131439999999997,1
2733,8.752487,0.24679565,3.0700529999999997,1
2734,8.720169,0.24320984,3.0724487000000003,1
2735,8.684265,0.23602295,3.0712433,1
2736,8.703415,0.18095398,3.0700529999999997,1
2737,8.72377,0.14624023,3.0844116,1
2738,8.736938,0.20370483,3.0544891,1
2739,8.754883,0.2192688,3.058075,1
2740,8.736938,0.2240448,3.0413208,1
2741,8.736938,0.1953125,3.0485077,1
2742,8.695038,0.20968628,3.058075,1
2743,8.703415,0.20489502,3.0449066000000005,1
2744,8.728546000000001,0.22164917,3.0808258,1
2745,8.744110000000001,0.2695465,3.0927887000000003,1
2746,8.732147,0.1725769,3.034134,1
2747,8.752487,0.2300415,3.0437164,1
2748,8.710602,0.23123169,3.089203,1
2749,8.716583,0.22164917,3.0987854,1
2750,8.832703,0.23602295,3.0042114,1
2751,8.808762,0.1953125,3.0054016,1
2752,8.724960000000001,0.14384460000000002,3.089203,1
2753,8.704605,0.1797638,3.1179352000000002,1
2754,8.756088,0.20010376,3.034134,1
2755,8.716583,0.24200439999999998,2.9694977000000002,1
2756,8.699814,0.29348755,3.046112,1
2757,8.748901,0.32699585,3.0413208,1
2758,8.795592999999998,0.30186462,3.0568847999999997,1
2759,8.780028999999999,0.23960876,3.034134,1
2760,8.752487,0.16659546,3.0317382999999998,1
2761,8.720169,0.1797638,3.0101929,1
2762,8.72377,0.16299438,3.0353394000000002,1
2763,8.740524,0.18214417,3.0137787,1
2764,8.766861,0.20968628,2.994629,1
2765,8.788406,0.1953125,2.99823,1
2766,8.783615,0.22045898,2.9994202000000003,1
2767,8.751297000000001,0.23960876,2.9419556,1
2768,8.689041,0.23721313,2.991043,1
2769,8.722565,0.24559021,2.9886475,1
2770,8.789597,0.22285461,2.9611206,1
2771,8.788406,0.18095398,2.9742889999999997,1
2772,8.794388,0.19770813,2.9658966,1
2773,8.789597,0.19172668,2.9718932999999996,1
2774,8.766861,0.20249939,2.963501,1
2775,8.754883,0.23123169,2.9599152,1
2776,8.780028999999999,0.29467773,2.943161,1
2777,8.751297000000001,0.25398254,2.9647064,1
2778,8.8003845,0.23602295,2.91922,1
2779,8.812347,0.2300415,2.9048462,1
2780,8.772842,0.23960876,2.8773193,1
2781,8.774047999999999,0.32101440000000003,2.8258362,1
2782,8.807556,0.27671814,2.8629456,1
2783,8.788406,0.20370483,2.8988647000000003,1
2784,8.728546000000001,0.20370483,2.9706879,1
2785,8.750107,0.21806335,3.0149841,1
2786,8.829102,0.2192688,2.9563292999999997,1
2787,8.813553,0.20370483,2.8689423,1
2788,8.708206,0.21806335,2.9252013999999997,1
2789,8.657928,0.2635498,3.058075,1
2790,8.687851,0.29826355,3.0652618,1
2791,8.775238,0.33537292,3.0317382999999998,1
2792,8.856644000000001,0.30186462,3.0173798,1
2793,8.793198,0.17736816,2.9647064,1
2794,8.771652,0.100753784,2.9706879,1
2795,8.7608795,0.10194397,3.0137787,1
2796,8.716583,0.115112305,3.0532837,1
2797,8.689041,0.15940857,3.0987854,1
2798,8.722565,0.19293213,3.0688477,1
2799,8.771652,0.23602295,3.0592804,1
2800,8.716583,0.2707367,3.01857,1
2801,8.733336999999999,0.29467773,3.066452,1
2802,8.730942,0.2240448,3.0939941,1
2803,8.764465,0.21208191,3.101181,1
2804,8.751297000000001,0.18574524,3.0449066000000005,1
2805,8.72377,0.19651794,3.0365295,1
2806,8.745316,0.21447754,3.0772247000000004,1
2807,8.745316,0.2348175,3.0233612,1
2808,8.753693,0.23362732,3.1083527,1
