,AccX[m/s^2],AccY[m/s^2],AccZ[m/s^2],label
0,8.673492,0.05885315,-0.44343567,1
1,8.869812,-0.09677124,-0.23873901,1
2,8.947617,0.21806335,-0.46618652,1
3,9.537796,-0.55526733,-0.13697815,1
4,9.424072,-0.15663147,-0.9581909,1
5,7.567367599999999,-0.27394104,-1.6118164,1
6,8.303574000000001,-0.24043274,-0.3261261,1
7,9.814316,-0.28352356,-0.16931152,1
8,8.969161999999999,-0.05368042,-0.4673767,1
9,9.151123,-0.49899292,1.5724791999999999,1
10,10.867767,-0.7695465,-2.5287933,1
11,9.0972595,-0.07641601599999999,0.27601624,1
12,8.941635,0.44432068,-1.74469,1
13,8.540604,0.29109192,-2.0343933,1
14,8.959595,-0.5444945999999999,-1.4047089,1
15,8.959595,-0.5444945999999999,-1.4047089,1
16,8.639969,-0.3469696,-0.16091919,1
17,9.522232,-0.20690918,-0.080718994,1
18,9.293579,-0.14225769,-0.5918884,1
19,9.29837,-0.109939575,-0.20761108,1
20,9.284011999999999,-0.078811646,-0.43386840000000004,1
21,9.525818,0.057647705,-0.5523834,1
22,9.596451,-0.20930481,-0.491333,1
23,8.680664,-0.20690918,0.043777465999999994,1
24,9.114014,-0.20809937,-0.5894928,1
25,9.51265,-0.3541565,-0.6661071999999999,1
26,9.384567,0.18334961,-0.73313904,1
27,8.958389,0.083984375,-0.57032776,1
28,9.341461,-0.08001709,-0.40155029999999997,1
29,8.911713,-0.29190063,-0.14176941,1
30,9.300766000000001,0.38327026,-0.39915466,1
31,9.723343,-0.95988464,-1.3436583999999998,1
32,9.3941345,-0.66778564,-0.84207153,1
33,9.438431,0.7819060999999999,0.3310852,1
34,8.859039,-0.49301147,0.53578186,1
35,9.135558999999999,-0.3768921,0.40769958,1
36,9.728133999999999,-0.3876648,-0.12620544,1
37,8.709396,-0.77433777,-0.32493590000000006,1
38,9.698196000000001,-0.12908936,-1.234726,1
39,9.519836,1.4127655000000001,-1.1030426000000002,1
40,9.319916000000001,0.055252075,-0.60505676,1
41,9.331894,1.0129395,-0.91030884,1
42,8.983536,0.65979004,-0.7989807,1
43,8.928467,0.6633911,-0.7750397,1
44,9.328292999999999,0.62628174,-0.8779906999999999,1
45,9.284011999999999,0.62268066,-0.88038635,1
46,9.123596000000001,0.64064026,-0.8253174000000001,1
47,8.818328999999999,0.848938,0.99069214,1
48,9.224152,0.36170959999999996,-2.2283173,1
49,8.872208,0.6466217,-0.417099,1
50,9.766434,0.52931213,-0.8241272,1
51,9.106842,0.69810486,-0.77264404,1
52,9.199005,0.73760986,-0.7570800999999999,1
53,9.17627,0.5951538000000001,-0.69602966,1
54,10.282394,0.69810486,-1.4813232,1
55,8.967972,0.52212524,-0.7020111,1
56,9.181061,0.43115234,-0.7283478,1
57,9.311539,0.62268066,-0.8791809000000002,1
58,9.121201,0.55804443,-0.6732788000000001,1
59,8.976349,0.86569214,-0.5966644,1
60,9.329498,0.5987395999999999,-0.7582855,1
61,9.274429,0.5855713,-0.8169403000000001,1
62,9.262466,0.6107178000000001,-0.84088135,1
63,9.337875,0.45269775,-0.9246825999999999,1
64,8.991913,0.60113525,-0.73313904,1
65,9.728133999999999,0.85731506,-1.6884308000000001,1
66,7.6200410000000005,0.7424010999999999,0.71894836,1
67,7.691864,0.55804443,0.28678894,1
68,10.8797455,0.8381653,-2.5718842,1
69,8.917694000000001,0.635849,-0.6266022,1
70,9.125992,0.57121277,-0.5416107,1
71,8.899734500000001,0.7507782,-0.51527405,1
72,9.188232000000001,0.5628357,-0.83010864,1
73,9.165497,0.69929504,-0.7463074000000001,1
74,9.254074000000001,0.6861267,-0.64933777,1
75,9.105637,0.5987395999999999,-0.6337738,1
76,9.597641000000001,0.5568390000000001,-0.93066406,1
77,9.451599,0.8381653,0.6531066999999999,1
78,9.175064,0.59394836,-0.43745422,1
79,9.600037,0.8405609,-0.7522888000000001,1
80,9.165497,0.47184753,-0.45899963,1
81,9.233734,0.77830505,-0.7379303,1
82,9.236130000000001,0.6286621,-0.535614,1
83,9.134369,0.43354797,-0.5021057,1
84,9.152328500000001,0.39164734,-0.41830444,1
85,9.523422,0.8345642,-0.6613159000000001,1
86,9.153519000000001,0.5077667,-0.6804657,1
87,9.218169999999999,0.596344,-0.6038513000000001,1
88,9.372589,0.45149229999999996,-0.57032776,1
89,7.813965,0.6430359,1.7161255000000002,1
90,9.96994,0.8417511000000001,-1.6213837,1
91,9.418076,0.1725769,0.5489501999999999,1
92,9.143951,0.7759094,-0.38957214,1
93,9.236130000000001,0.7112732,-0.37161255,1
94,9.37619,0.5855713,-0.50450134,1
95,9.233734,0.67056274,-0.491333,1
96,9.212173,0.6238861,-0.42070007,1
97,9.087677000000001,0.5987395999999999,-0.2351532,1
98,9.360626,0.6131134,-0.40393066,1
99,9.052963,0.6562041999999999,-0.27226257,1
100,8.531036,0.67056274,0.6710663,1
101,9.070922999999999,0.6454314999999999,-0.23992919999999998,1
102,9.208588,0.53170776,-0.30937195,1
103,9.246902,0.64183044,-0.37998962,1
104,9.193024000000001,0.6645813,-0.33091736,1
105,9.153519000000001,0.6538086,-0.3440857,1
106,9.196625,0.7040863,-0.36442566,1
107,9.178664999999999,0.79745483,-0.38838196,1
108,9.304352,0.6897278,-0.43745422,1
109,9.194229,0.576004,-0.37521362,1
110,9.272034,0.5700073,-0.3871765,1
111,9.410903999999999,0.54008484,-0.36442566,1
112,9.3498535,0.5484619000000001,-0.26507568,1
113,8.940445,0.79626465,-0.17170715,1
114,8.90094,0.7005005,-0.29620359999999996,1
115,9.188232000000001,0.4191742,0.04498291,1
116,9.208588,0.5281066999999999,-0.4063263,1
117,9.210983,0.6921234,-0.64456177,1
118,9.129578,0.6669769,-0.49731445,1
119,9.725739,0.29588318,-0.09986877400000001,1
120,9.285202,0.5245209,-0.09867859,1
121,9.117614999999999,0.58917236,-0.5751189999999999,1
122,9.096069,0.49699402,-1.0204468,1
123,9.801147,0.6789550999999999,-1.0216370000000001,1
124,9.220566,0.89323425,-0.9234771999999999,1
125,8.146759,1.2104645,0.058151245,1
126,9.963959,0.22764587,-0.18606567,1
127,9.327103,0.34616090000000005,0.32987976,1
128,8.789597,0.8776703000000001,-0.64694214,1
129,9.151123,0.9423065,-0.040023803999999996,1
130,9.31633,0.30665588,-0.6613159000000001,1
131,9.086487,1.0117493,-1.5172424,1
132,8.758484,1.3660888999999998,-1.2466888,1
133,9.274429,0.7016906999999999,0.84703064,1
134,8.844666,1.0608215,-0.52604675,1
135,9.506668,0.6095123,-0.31414795,1
136,9.51265,0.34854126,0.17546082,1
137,8.975159,0.35932922,-0.083114624,1
138,9.154724,-0.012969971,-0.071136475,1
139,8.727356,0.7040863,-0.029251099,1
140,9.406113000000001,1.1123047,-0.7403259,1
141,10.924042,0.32341003,1.7472534,1
142,8.493927000000001,0.5185394,-0.35246277,1
143,9.600037,0.34495544,0.18144226,1
144,9.33429,0.4479065,0.765625,1
145,8.393355999999999,1.868866,0.041381836,1
146,9.402527000000001,1.2344055,-0.104660034,1
147,9.218169999999999,0.9925841999999999,-0.2578888,1
148,9.093674,0.37368774,-0.63139343,1
149,8.034241,0.6645813,0.101242065,1
150,8.596878,1.1194763,-0.91989136,1
151,11.307114,0.8453521999999999,-0.62779236,1
152,10.804321,0.96984863,-0.48773193,1
153,9.027832,0.88604736,-0.38478088,1
154,9.402527000000001,0.58317566,0.11201477,1
155,8.72377,0.9387207000000001,0.36938477,1
156,8.447235000000001,1.1170806999999998,0.39093018,1
157,8.708206,0.71725464,0.74887085,1
158,9.720947,0.7040863,-1.2502898999999998,1
159,9.534195,0.7842865,0.75245667,1
160,9.2708435,0.6968994000000001,0.18981934,1
161,9.081696,1.1278534,0.04736328,1
162,8.581314,0.5448761,0.16947937,1
163,8.948822,0.79745483,0.06173706,1
164,10.568497,1.877243,0.28918457,1
165,9.643142999999998,-0.14346313,-0.11903381,1
166,12.342606,-0.17459106,-0.6182251,1
167,8.959595,-0.8126373,0.32629395,1
168,8.869812,0.9758300999999999,0.32868958,1
169,8.973953,1.062027,0.61120605,1
170,8.529831,0.8118286,0.091659546,1
171,13.995789000000002,0.596344,1.4168549,1
172,10.183029,-0.46907043,-0.030441284,1
173,9.571304,0.0013885498,-0.08551025400000001,1
174,8.576523,1.0440674,0.26524353,1
175,8.490326,0.75556946,0.19102478,1
176,8.7656555,0.34016418,0.077301025,1
177,9.705383,0.20489502,-0.50090027,1
178,9.951996000000001,0.17018127,-0.57751465,1
179,9.258865,0.51374817,-0.3835907,1
180,8.624405,0.32460022,-0.1381836,1
181,9.853821,-0.996994,-0.18965149,1
182,9.665878,-0.368515,-0.48773193,1
183,9.012267999999999,0.51493835,-0.07234192,1
184,9.626373,0.8046416999999999,0.171875,1
185,8.862625,0.40481567,-1.1976166000000001,1
186,9.510254,-1.3609161,0.22094727,1
187,7.882202,-0.65582275,-0.3368988,1
188,9.29718,-0.9562988000000001,0.41368103,1
189,15.303023999999999,0.036102295,0.5118408,1
190,4.5159607,0.5257263000000001,-0.04360962,1
191,10.531386999999999,-0.6187134,-0.28543090000000004,1
192,12.014586999999999,-2.9039764,-0.99290466,1
193,11.141907000000002,-3.076355,-0.37161255,1
194,9.390549,-0.6474456999999999,0.074905396,1
195,8.619614,0.06124878,-0.18367004,1
196,6.5007477,-0.4056244,-0.34048462,1
197,10.70018,-0.8964386000000001,0.6961975,1
198,9.609619,-0.3936615,-0.54519653,1
199,9.877761999999999,-0.4451294,-0.46260070000000003,1
200,9.403717,-0.6869506999999999,-0.8456726000000001,1
201,14.017349,-1.7451782,-0.44703674,1
202,11.727295,-1.3968201,-0.14297485,1
203,5.0127562999999995,-0.18176270000000003,1.449173,1
204,6.630035400000001,-0.14346313,-0.417099,1
205,6.153595,0.012161255,-1.3747863999999999,1
206,9.546173,0.046875,-0.35006714,1
207,10.63913,-0.9323425,-0.33570862,1
208,8.214996000000001,-0.21887207,-0.29141235,1
209,7.400970500000001,0.7759094,-0.31774902,1
210,10.623566,-0.42597959999999996,0.17546082,1
211,10.704971,-0.96707153,-0.6266022,1
212,10.023819,-0.65940857,0.4807129,1
213,8.261688000000001,-0.06803894,0.47593690000000005,1
214,8.855438000000001,0.122299194,-0.18486023,1
215,7.8570557,-0.55526733,-0.65652466,1
216,8.003113,-0.23803711,-0.7115935999999999,1
217,8.237747,0.6250763,3.0939941,1
218,9.687424,0.30665588,-1.4705504999999999,1
219,10.368576,-0.42118835,-0.01008606,1
220,8.495117,-0.20690918,0.120391846,1
221,9.008666999999999,0.050476074,0.37657166,1
222,8.729752000000001,0.37249756,0.60762024,1
223,8.626800999999999,0.25756836,0.9487915000000001,1
224,8.398147999999999,0.42515564,1.3186951,1
225,8.701019,0.47184753,1.8130951000000002,1
226,8.922485,0.34376526,1.8370361000000002,1
227,9.17627,0.32699585,1.6790161,1
228,9.436035,0.31143188,1.5425415,1
229,9.619202,0.37249756,1.4467773000000002,1
230,9.764038000000001,0.4407196,1.3821411,1
231,9.437241,0.48980713,1.3162994,1
232,9.055359,0.54966736,1.2839813,1
233,8.542999,0.64183044,1.5006561,1
234,8.671097,0.6681670999999999,1.3426361,1
235,8.659119,0.7340088,1.196579,1
236,8.674683,0.7531738,1.0565186000000002,1
237,8.578918,0.5747985999999999,1.0505371000000001,1
238,8.569336,0.38206482,1.0409698,1
239,8.906921,0.23123169,0.7572479,1
240,8.791992,0.15701294,0.57888794,1
241,9.614410000000001,0.15580750000000002,0.508255,1
242,9.645538,0.3222046,0.49388123,1
243,9.639542,0.2348175,0.36819458,1
244,9.536591,0.22525024,0.39453125,1
245,9.087677000000001,0.21566772,0.95118713,1
246,8.90213,0.14263916,1.0062408,1
247,8.82312,0.046875,0.8913269,1
248,8.611237,0.02293396,0.92485046,1
249,8.601654,-0.033325195,1.0002594,1
250,9.143951,0.42277527,0.9020995999999999,1
251,9.69342,0.8202056999999999,0.6171875,1
252,10.338654,0.73161316,0.19342041,1
253,10.035782000000001,0.5017699999999999,0.12278747599999999,1
254,10.139938,0.7304229999999999,-0.5068817,1
255,10.027405,1.0057525999999999,-0.630188,1
256,9.71257,0.45269775,-1.0767058999999999,1
257,9.683838,0.013366699,-1.5675201,1
258,9.346252,-0.78271484,-0.18606567,1
259,8.601654,-1.3692932,0.04498291,1
260,8.503494,-2.20607,-0.14656067,1
261,8.599258,-2.9003906,-0.6768799,1
262,8.662704,-3.0667877,-1.7806091,1
263,9.06134,-2.7208252,-2.1924132999999997,1
264,9.33429,-2.2072601,-2.1385345,1
265,9.006287,-1.5692138999999998,-3.2027588,1
266,8.734542999999999,-0.9287566999999999,-3.4924622000000003,1
267,9.309142999999999,-0.29788208,-2.9106598,1
268,9.434845,0.39404297,-1.8847504000000002,1
269,9.3546295,0.38446045,-1.0372009,1
270,9.324707,-0.37210083,-0.60505676,1
271,9.610809,-1.2807007,-0.7463074000000001,1
272,9.98671,-1.9953766,-0.91030884,1
273,9.942413,-2.451477,-0.9294585999999999,1
274,8.780028999999999,-2.8728485,-0.58470154,1
275,8.104858,-2.8932037,-0.6517334,1
276,8.259293,-2.2719116,-0.6014556999999999,1
277,8.7656555,-1.6434326000000001,-0.8660126,1
278,9.421677,-0.8760834000000001,-0.7858124,1
279,9.901717999999999,-0.7922821,-0.63139343,1
280,9.827484,-1.1885223,-0.46020508,1
281,9.369003,-1.4207611,-0.34169006,1
282,8.876999,-1.5009766000000002,-0.27824402,1
283,8.1479645,-1.6542052999999999,-0.5463866999999999,1
284,7.863052400000001,-1.5979309,-1.203598,1
285,8.960785000000001,-1.3609161,-1.3149261,1
286,10.629547,-1.5404816000000001,-1.0419922,1
287,10.166275,-1.6961060000000001,-0.8468628,1
288,8.96199,-1.5979309,-0.7008209,1
289,7.679886,-1.0173492,-0.76426697,1
290,7.649963400000001,-0.39245605,-0.803772,1
291,8.629196,-0.47505188,-0.6409607,1
292,9.275619500000001,-1.0221252,-0.6086425999999999,1
293,9.458786,-1.8684845,-0.102264404,1
294,9.747284,-2.5963135,0.17425537,1
295,10.422455000000001,-2.3114166000000003,0.108428955,1
296,10.852203,-2.024109,-0.491333,1
297,10.385345,-1.4782256999999999,-0.7475128000000001,1
298,9.620391999999999,-0.9479065000000001,-0.26747129999999997,1
299,9.360626,-0.22726439999999998,0.2341156,1
300,9.339081,0.07081604,0.1946106,1
301,9.497086,-0.4439392,0.04019165,1
302,9.397736,-1.2124786,0.21257019,1
303,9.009872,-2.1270599999999997,0.5298004,1
304,8.827911,-2.1617737,0.14672852,1
305,9.044586,-1.5548401,-0.10586548,1
306,9.366608,-0.6641998,-0.5428009,1
307,9.274429,0.25277710000000003,-0.5248413000000001,1
308,9.374985,0.33059692,-0.020858765,1
309,9.380966,-0.31225586,-0.0041046143,1
310,9.330688,-1.1107178,0.27720642,1
311,9.165497,-1.6553955000000002,0.62316895,1
312,9.080505,-1.7308197,1.2301024999999999,1
313,8.674683,-1.6242676,1.1187744,1
314,8.392166,-1.5560455,0.64112854,1
315,8.74292,-1.3202056999999998,1.1451111,1
316,9.614410000000001,-1.0293120999999998,0.27601624,1
317,9.900513,-0.41520690000000005,0.9284363000000001,1
318,10.08606,0.0013885498,0.8709716999999999,1
319,9.9496,-0.5672302,0.4807129,1
320,9.130783000000001,-1.4542846999999999,0.8889313,1
321,8.7656555,-2.435913,1.2277069,1
322,8.826721000000001,-2.724411,1.5485381999999999,1
323,8.863831,-1.8972168000000003,1.2061614999999999,1
324,8.859039,-1.1574096999999999,0.5920563,1
325,8.820724499999999,-0.60913086,0.73091125,1
326,9.051772999999999,-0.29309082,0.73928833,1
327,9.146347,0.052871704000000005,0.5453644,1
328,9.468353,-0.0440979,0.9451904000000001,1
329,9.645538,-0.30865479999999995,1.0708923000000001,1
330,9.299576,-0.9730530000000001,1.12117,1
331,8.7656555,-1.491394,1.4060822,1
332,7.7684784,-1.9989624,2.251236,1
333,7.5075073,-1.7368011000000003,2.501419,1
334,7.976775999999999,-1.1059265,2.0070189999999997,1
335,9.058945,-0.41879272,1.9124603,1
336,10.265625,0.038497925,1.4767151,1
337,10.737289,-0.27514648,0.71295166,1
338,9.802353,-0.8569336,0.99786377,1
339,8.574127,-1.9271393,2.220108,1
340,8.458008,-2.5089264,2.1051787999999996,1
341,8.631592,-2.6310425,1.1331328999999999,1
342,9.109222,-1.9642487000000002,1.1295471000000001,1
343,9.281616,-0.15423584,0.8147125,1
344,9.161896,1.6785278000000001,0.21496582,1
345,10.16507,1.6067046999999999,-0.03642273,1
346,10.555328,-0.16381836,-0.34648132,1
347,10.036987,-0.87968445,0.22573853,1
348,9.540192,-0.5337219,0.66867065,1
349,8.720169,-0.12908936,0.6363373000000001,1
350,8.625595,0.23123169,0.14553833,1
351,9.479141,-0.054870605,0.048568726,1
352,9.313934,-0.7587738,0.07609558,1
353,8.593277,-1.1765594,0.92962646,1
354,7.6080627000000005,-1.3070374,1.2432709,1
355,7.578140299999999,-0.0045928955,1.5449371,1
356,8.677078,0.56521606,0.8661804,1
357,9.444412,-0.46069336,0.5657196,1
358,9.622786999999999,-1.577591,0.8111267,1
359,10.094437,-2.064804,0.7728119000000001,1
360,9.506668,-1.4231566999999998,0.8218994000000001,1
361,8.7812195,-0.5253296,1.7687988000000001,1
362,8.862625,-0.25837708,1.5150146,1
363,9.641936999999999,0.026535034,1.5880432,1
364,10.199783,0.08518982,1.1427155,1
365,9.931641,-0.5612488,1.4384003,1
366,9.263657,-1.1693726,1.6550751,1
367,9.161896,-1.4303436,1.6766205,1
368,9.263657,-1.1406403,1.5664978,1
369,9.699402000000001,-1.0783996999999999,1.5293732,1
370,9.803543,-1.0592499,1.7221069,1
371,9.064941000000001,-0.6905365,1.8861237000000002,1
372,8.740524,-0.56843567,1.6885986000000002,1
373,8.711791999999999,-0.86172485,1.291153,1
374,8.763275,-0.76834106,1.136734,1
375,8.924881,-0.08958435,1.686203,1
376,9.289992999999999,0.010971068999999998,2.0812378000000002,1
377,9.421677,-0.5827941999999999,1.6383208999999999,1
378,9.299576,-0.8748931999999999,1.796341,1
379,8.908112,-0.8377838,1.5269928,1
380,8.373016,-0.55766296,1.5652924,1
381,8.180283,-0.026138306,1.7939453,1
382,8.459197999999999,0.31622314,1.7556305,1
383,8.746506,-0.00819397,1.9148406999999998,1
384,8.689041,-0.368515,1.919632,1
385,8.631592,-0.06324768,2.0549011000000004,1
386,8.376602,0.5987395999999999,1.8813324,1
387,8.886566,0.6897278,1.5497284,1
388,9.507858,0.26475525,1.291153,1
389,9.538986,0.42277527,1.2696075,1
390,9.239716,0.6071167,1.3988953000000002,1
391,8.686661,0.68733215,1.4671326,1
392,8.017471,0.61909485,1.607193,1
393,7.1878815000000005,0.15701294,2.0201874,1
394,6.955642699999999,0.115112305,2.1291351,1
395,7.738556,0.33537292,1.8837279999999998,1
396,8.428085000000001,0.38565063,1.4407959,1
397,8.595673,0.45988464,0.89012146,1
398,8.8003845,1.0560303,1.2540436000000001,1
399,8.456802,2.0065308,1.7077484,1
400,8.241333000000001,2.569168,1.5605011,1
401,8.626800999999999,1.868866,1.1307526,1
402,8.1707,1.6031036,-0.26626587,1
403,8.307175,0.8345642,0.6542969,1
404,9.555756,0.43952942,2.8042908,1
405,10.217742999999999,0.083984375,1.6347198,1
406,11.238876,0.14144897,2.1075744999999997,1
407,10.455963,0.0049743652,1.3426361,1
408,9.756866,0.7435913000000001,-1.0779113999999999,1
409,10.849808,1.1793365,-3.7199097,1
410,13.900023999999998,0.23960876,-5.480835,1
411,14.546463000000001,-0.8282013,-5.424576,1
412,11.581238,-2.0121307,-3.3488007000000004,1
413,8.7608795,-4.989319,-0.91389465,1
414,6.506729,-7.141708400000001,-0.9007415999999999,1
415,6.098526000000001,-6.1217804000000005,-1.0180511,1
416,6.930511500000001,-3.8688354,-1.7470856,1
417,8.335907,-0.98861694,-2.452179,1
418,8.175491000000001,0.5065613,-2.7849730999999998,1
419,7.763686999999999,-0.78990173,-1.6058197,1
420,7.2118225,-2.2623290000000003,-1.9098968999999997,1
421,6.8910065000000005,-2.574768,-1.0000916,1
422,6.336746,-2.535263,-0.54519653,1
423,6.6132813,-2.4215392999999996,-1.7255401999999997,1
424,6.646789599999999,-1.7631378,-2.8268737999999995,1
425,6.6180573,-0.9646759,-2.6784362999999995,1
426,6.5905304000000005,-0.6821594,-2.3444366000000003,1
427,7.4596252000000005,-1.5237121999999999,-1.5064697,1
428,8.064163,-1.7655333999999998,-1.4753418,1
429,6.554611,-0.6917267,-1.8524323,1
430,6.692276,0.09596252400000001,-1.5603333000000001,1
431,7.3614654999999996,0.013366699,-1.0072784,1
432,9.883759,-1.2052916999999999,-2.2139587000000005,1
433,10.564911,-1.9917908,-3.3595733999999995,1
434,8.774047999999999,-2.2946472,-3.0866394,1
435,7.3482970000000005,-2.0073395,-1.9924927,1
436,7.863052400000001,-1.6087189,-1.9565735,1
437,9.629974,-1.8217926,-1.7901764,1
438,10.692993,-1.5608215,-1.282608,1
439,10.174652,-1.0161438,-1.6393433000000002,1
440,9.401321000000001,-0.78271484,-1.9697418000000002,1
441,10.853409,-1.1849365,-1.9817200000000001,1
442,11.560898,-1.0724182,-2.4342194,1
443,12.136703500000001,-0.54689026,-1.9230652,1
444,12.625122,0.09715271,-1.2598572000000001,1
445,11.920029,0.33299255,-1.48732,1
446,10.8402405,-0.73243713,-2.254654,1
447,11.152679,-1.6494141,-1.7698363999999998,1
448,11.019805999999999,-1.5895538,-1.0599518,1
449,11.147888,-0.8353881999999999,-1.0431824,1
450,11.243668,-0.20930481,-1.2730255,1
451,11.921219,-0.14704895,-1.5172424,1
452,11.7500305,-0.32900999999999997,-2.13974,1
453,10.301544,-0.31344604,-1.8452453999999998,1
454,9.770035,-1.2088776,-1.8859406000000003,1
455,9.3941345,-1.874466,-1.6189879999999999,1
456,9.203796,-1.9714355,-1.3484497,1
457,8.503494,-1.1837463,-0.966568,1
458,8.156342,-0.4092102,-0.8456726000000001,1
459,9.012267999999999,-0.5097656,-0.9450226,1
460,8.928467,-0.4559021,-1.1473388999999998,1
461,9.523422,-0.917984,-0.8744049,1
462,9.635956,-0.74679565,-0.50090027,1
463,9.433639999999999,-0.5061798,-0.41949463,1
464,9.516250999999999,-0.8856659,-0.52963257,1
465,9.589264,-1.0927582,-0.84088135,1
466,9.501877,-1.0580444,-0.7163849,1
467,9.17746,-0.87968445,-0.7451171999999999,1
468,8.886566,-1.0747986,-0.7750397,1
469,8.790802000000001,-1.2280273000000002,-0.77145386,1
470,9.246902,-1.4949799,-0.5284424,1
471,9.29837,-1.4782256999999999,-0.27464294,1
472,9.233734,-1.4734344,-0.24113464,1
473,9.218169999999999,-1.2172546,-0.2291565,1
474,9.676651,-1.0496674,0.28320313,1
475,9.589264,-1.0747986,0.53578186,1
476,9.419281,-1.348938,0.21496582,1
477,9.2313385,-1.0867767,-0.38838196,1
478,9.230133,-0.5636444,-0.39915466,1
479,9.023041000000001,-0.31105042,0.06892395,1
480,9.067337,-0.6582184,0.46037292,1
481,9.379776,-1.1083221,0.43643188,1
482,9.717361,-1.3381653,0.56092834,1
483,9.585678,-1.3321838,0.686615,1
484,9.154724,-1.175354,0.79914856,1
485,9.184647,-0.81144714,1.2504578000000002,1
486,8.98114,-0.6127166999999999,0.9463959000000001,1
487,8.880585,-0.76356506,1.0158234,1
488,8.611237,-0.80426025,1.0696868999999998,1
489,8.569336,-0.82940674,0.6842345999999999,1
490,9.076903999999999,-1.0927582,0.642334,1
491,9.3701935,-1.2878876,0.51304626,1
492,9.333084,-1.4111938,0.721344,1
493,9.146347,-1.5392761000000001,0.9859009,1
494,9.12001,-1.4135895,0.9116820999999999,1
495,9.115219,-1.230423,0.79556274,1
496,9.128387,-1.1837463,0.54655457,1
497,9.165497,-1.0376892,0.67225647,1
498,9.330688,-0.7886963,0.82069397,1
499,9.511459,-0.49899292,0.8135071,1
500,9.479141,-0.40682983,0.67344666,1
501,9.371399,-0.4774475,0.69140625,1
502,9.285202,-0.64624023,0.83625793,1
503,8.982330000000001,-0.7587738,1.3905181999999998,1
504,8.788406,-0.9084015,1.7999268,1
505,8.964386,-0.9084015,1.8908996999999999,1
506,8.912903,-0.72525024,1.6395111,1
507,8.809952000000001,-0.6833496,1.349823,1
508,9.123596000000001,-0.82221985,1.1642609,1
509,9.6467285,-0.8748931999999999,0.8661804,1
510,9.773621,-0.78630066,0.5369873000000001,1
511,9.385757,-0.6941223000000001,0.50704956,1
512,9.017059,-0.838974,1.0325775,1
513,8.772842,-0.94192505,1.370163,1
514,8.769257000000001,-0.7815094,1.4312133999999999,1
515,8.97995,-0.47146606,1.3174896,1
516,9.100845,-0.057266235,1.3605957,1
517,9.145142,0.22045898,1.3019257,1
518,9.209793,0.26235962,1.2815857,1
519,9.433639999999999,0.25277710000000003,1.6873932,1
520,9.473145,-0.054870605,1.7735901,1
521,9.25528,-0.4559021,1.2540436000000001,1
522,9.039795,-0.48582458,1.2791901,1
523,8.995499,-0.49421692,1.2384796,1
524,9.039795,-0.5061798,0.87934875,1
525,9.099655,-0.5217438,0.6961975,1
526,9.228943,-0.47625732,0.61479187,1
527,9.268448,-0.3469696,0.48550415,1
528,9.155914,-0.100372314,0.59324646,1
529,9.136764999999999,-0.095581055,0.6315613,1
530,9.262466,-0.2320404,0.6459198,1
531,9.3151245,-0.21289063,0.57888794,1
532,9.300766000000001,-0.13029480000000002,0.6315613,1
533,9.146347,-0.210495,0.9990691999999999,1
534,9.105637,-0.37091064,1.176239,1
535,9.074508999999999,-0.42956543,1.3222809,1
536,9.109222,-0.62828064,1.4144591999999998,1
537,9.280411,-0.7671509,1.4036865,1
538,9.410903999999999,-0.8270110999999999,1.3270721,1
539,9.263657,-0.73483276,1.2492523000000002,1
540,9.124786,-0.72525024,1.3486176,1
541,9.038605,-0.8425598,1.4431915000000002,1
542,9.130783000000001,-0.9107970999999999,1.5461426,1
543,9.0972595,-0.98501587,1.6682433999999997,1
544,9.020645,-1.0580444,1.7268982,1
545,9.039795,-1.1286774,1.6742249,1
546,9.137955,-1.0161438,1.5712738000000002,1
547,9.128387,-0.6689911000000001,1.4395905,1
548,9.031417999999999,-0.4774475,1.4479828000000001,1
549,8.932053,-0.4379425,1.4324188,1
550,8.964386,-0.4738617,1.3402405000000002,1
551,9.06134,-0.44631958,1.2504578000000002,1
552,9.134369,-0.6582184,1.2420806999999998,1
553,9.240905999999999,-0.88087463,1.3282623,1
554,9.345061999999999,-1.2483826,1.1929931999999999,1
555,9.280411,-1.4698486000000002,1.0852509,1
556,9.303162,-1.4339294,0.94758606,1
557,9.426468,-1.3166198999999998,0.83865356,1
558,9.404907000000001,-1.194519,0.77041626,1
559,9.3893585,-1.0891723999999998,0.7512665,1
560,9.33429,-0.996994,0.9775238000000002,1
561,9.275619500000001,-0.89523315,1.0254059000000002,1
562,9.090073,-0.7336273,1.0373688,1
563,9.038605,-0.61990356,1.1295471000000001,1
564,9.052963,-0.67855835,1.2755889999999999,1
565,9.131973,-0.7384185999999999,1.3270721,1
566,9.189438,-0.63786316,1.2863617,1
567,9.096069,-0.53730774,1.2791901,1
568,8.990723,-0.54089355,1.3414306999999999,1
569,9.017059,-0.66778564,1.3174896,1
570,9.197815,-0.739624,1.349823,1
571,9.269638,-0.7192688,1.3055267,1
572,9.181061,-0.64863586,1.196579,1
573,9.134369,-0.59477234,1.2181396,1
574,9.146347,-0.6366729999999999,1.2947540000000002,1
575,9.152328500000001,-0.71806335,1.2767944,1
576,9.117614999999999,-0.7671509,1.270813,1
577,9.145142,-0.7922821,1.1941986,1
578,9.212173,-0.7623595999999999,1.1594696000000002,1
579,9.181061,-0.7216644,1.1882019,1
580,9.165497,-0.7108916999999999,1.1810303,1
581,9.212173,-0.7013092,1.1391296,1
582,9.155914,-0.69651794,1.2743988000000002,1
583,9.122391,-0.7264556999999999,1.3893127,1
584,9.191833500000001,-0.76116943,1.4048767,1
585,9.142746,-0.7803191999999999,1.3139038,1
586,9.155914,-0.75398254,1.2061614999999999,1
587,9.172684,-0.7982788000000001,1.1989746000000001,1
588,9.048172000000001,-0.9000244000000001,1.3126984,1
589,9.099655,-0.9467163000000001,1.2959441999999999,1
590,9.244507,-0.85453796,1.1918030000000002,1
591,9.17746,-0.7527771,1.1582794,1
592,9.147537,-0.6929320999999999,1.0684966999999999,1
593,9.196625,-0.680954,1.0661011,1
594,9.225342,-0.72406006,1.0924377,1
595,9.230133,-0.6977234,1.0960236,1
596,9.196625,-0.68814087,1.0792694,1
597,9.17627,-0.73483276,1.1175841999999998,1
598,9.159514999999999,-0.6917267,1.1259613000000002,1
599,9.171478,-0.74320984,1.0780792,1
600,9.184647,-0.8413695999999999,1.0816649999999999,1
601,9.170288000000001,-0.85095215,1.152298,1
602,9.189438,-0.82940674,1.1403198,1
603,9.108032000000001,-0.77552795,1.1750336000000001,1
604,9.122391,-0.720459,1.1546936,1
605,9.070922999999999,-0.74320984,1.1905975,1
606,9.105637,-0.7420044,1.2181396,1
607,9.110428,-0.7503966999999999,1.1618652,1
608,8.996704,-0.77552795,1.1283569,1
609,9.014664,-0.71328735,1.0589142,1
610,9.17627,-0.6869506999999999,1.0637054,1
611,9.264847,-0.7480011,1.0122375,1
612,9.194229,-0.8305969000000001,1.0086365,1
613,9.0972595,-0.8928528,1.1151886,1
614,9.127182000000001,-0.9359436,1.1618652,1
615,9.301956,-0.84017944,1.2444763,1
616,9.260071,-0.73243713,1.0493469,1
617,9.103241,-0.7803191999999999,0.97273254,1
618,9.197815,-0.9107970999999999,1.018219,1
619,9.15831,-0.8868560999999999,1.1798248,1
620,9.080505,-0.7515869000000001,1.136734,1
621,9.100845,-0.8210144,0.96435547,1
622,9.25528,-0.83657837,0.85780334,1
623,9.303162,-0.7851104999999999,0.7177429,1
624,9.304352,-0.6725769,0.6363373000000001,1
625,9.252884,-0.581604,0.47833252,1
626,9.261261,-0.5732269,0.31193542,1
627,9.267242,-0.59117126,0.23890686,1
628,9.266052,-0.6498413000000001,0.137146,1
629,9.364212,-0.7875061,-0.0065002440000000005,1
630,9.365402,-0.83657837,-0.01966858,1
631,9.346252,-0.7503966999999999,0.023422241,1
632,9.227737,-0.7707366999999999,0.10722351,1
633,9.145142,-0.7886963,0.14791870000000001,1
634,9.214569000000001,-0.82221985,0.120391846,1
635,9.318726,-0.7444,0.070114136,1
636,9.289992999999999,-0.720459,0.10003662,1
637,9.287598,-0.70610046,0.14791870000000001,1
638,9.312744,-0.7695465,0.26045227,1
639,9.291183,-0.7216644,0.39453125,1
640,9.228943,-0.67855835,0.41607666,1
641,9.205002,-0.6151123000000001,0.35742188,1
642,9.220566,-0.6115265000000001,0.32389832,1
643,9.309142999999999,-0.6725769,0.29037476,1
644,9.294785000000001,-0.7480011,0.30593872,1
645,9.294785000000001,-0.75756836,0.36221313,1
646,9.348647999999999,-0.8473511,0.42805479999999996,1
647,9.189438,-0.8413695999999999,0.33467102,1
648,9.151123,-0.87968445,0.3825531,1
649,9.182250999999999,-0.9060210999999999,0.3885498,1
650,9.212173,-0.9287566999999999,0.5058594,1
651,9.135558999999999,-0.8473511,0.52500916,1
652,9.165497,-0.85572815,0.5561371,1
653,9.257675,-0.86172485,0.5274048000000001,1
654,9.280411,-0.89404297,0.5166321,1
655,9.252884,-0.8593291999999999,0.63035583,1
656,9.239716,-0.79467773,0.70817566,1
657,9.213379,-0.78990173,0.69021606,1
658,9.218169999999999,-0.783905,0.69859314,1
659,9.2313385,-0.84376526,0.7644348000000001,1
660,9.146347,-0.8988341999999999,0.8518219000000001,1
661,9.148727000000001,-0.95988464,0.8697815000000001,1
662,9.206192,-0.9503021,0.88534546,1
663,9.210983,-0.89523315,0.8314666999999999,1
664,9.190628,-0.9155884,0.83865356,1
665,9.202606,-0.9167938,0.7835846,1
666,9.228943,-0.9072113000000002,0.63035583,1
667,9.227737,-0.9395294,0.60762024,1
668,9.221756,-0.9431305,0.65190125,1
669,9.226547,-0.93833923,0.70936584,1
670,9.213379,-0.9251709000000001,0.74168396,1
671,9.218169999999999,-0.87249756,0.7644348000000001,1
672,9.261261,-0.7958831999999999,0.7285156,1
673,9.222961,-0.7503966999999999,0.68063354,1
674,9.191833500000001,-0.6821594,0.75245667,1
675,9.240905999999999,-0.6917267,0.7357024999999999,1
676,9.209793,-0.7024994000000001,0.7548523,1
677,9.189438,-0.6498413000000001,0.8135071,1
678,9.25647,-0.6582184,0.8590088,1
679,9.202606,-0.6522217,0.686615,1
680,9.199005,-0.6821594,0.8159026999999999,1
681,9.165497,-0.7480011,0.8266754000000001,1
682,9.208588,-0.8090515,0.78118896,1
683,9.17627,-0.76594543,0.72372437,1
684,9.199005,-0.74560547,0.64352417,1
685,9.199005,-0.66778564,0.57289124,1
686,9.188232000000001,-0.5636444,0.57170105,1
687,9.228943,-0.56962585,0.62916565,1
688,9.210983,-0.6079406999999999,0.5884552,1
689,9.233734,-0.63067627,0.5764923000000001,1
690,9.240905999999999,-0.6402588,0.6351471,1
691,9.300766000000001,-0.6701813,0.58366394,1
692,9.282805999999999,-0.7384185999999999,0.55255127,1
693,9.276825,-0.68455505,0.45439148,1
694,9.178664999999999,-0.5959625,0.5573273,1
695,9.181061,-0.6151123000000001,0.5369873000000001,1
696,9.244507,-0.6246948,0.49987793,1
697,9.282805999999999,-0.60913086,0.46516418,1
698,9.2313385,-0.5708313,0.5118408,1
699,9.184647,-0.60554504,0.5010680999999999,1
700,9.209793,-0.60194397,0.56092834,1
701,9.243300999999999,-0.57681274,0.53219604,1
702,9.249298,-0.5313263,0.60162354,1
703,9.258865,-0.58877563,0.6255646,1
704,9.226547,-0.542099,0.6471100000000001,1
705,9.169083,-0.5325165,0.71295166,1
706,9.179855,-0.5504760999999999,0.71655273,1
707,9.249298,-0.56962585,0.6890106,1
708,9.218169999999999,-0.6127166999999999,0.7333069000000001,1
709,9.222961,-0.6414489999999999,0.70817566,1
710,9.279221000000001,-0.6546173000000001,0.7644348000000001,1
711,9.199005,-0.6474456999999999,0.6267699999999999,1
712,9.202606,-0.61990356,0.6363373000000001,1
713,9.21936,-0.67736816,0.63993835,1
714,9.216965,-0.7671509,0.666275,1
715,9.182250999999999,-0.7982788000000001,0.7177429,1
716,9.208588,-0.7264556999999999,0.7512665,1
717,9.213379,-0.7024994000000001,0.69021606,1
718,9.226547,-0.6689911000000001,0.74768066,1
719,9.191833500000001,-0.64624023,0.7117614999999999,1
720,9.25528,-0.65582275,0.67225647,1
721,9.264847,-0.6821594,0.71655273,1
722,9.266052,-0.7420044,0.6926116999999999,1
723,9.216965,-0.71328735,0.7117614999999999,1
724,9.216965,-0.6761626999999999,0.72013855,1
725,9.208588,-0.71447754,0.78718567,1
726,9.193024000000001,-0.76594543,0.82907104,1
727,9.228943,-0.76594543,0.83984375,1
728,9.182250999999999,-0.73602295,0.78837585,1
729,9.190628,-0.72406006,0.7345123,1
730,9.232529,-0.680954,0.72972107,1
731,9.224152,-0.6689911000000001,0.6854248000000001,1
732,9.244507,-0.66778564,0.6566925,1
733,9.215775,-0.65701294,0.64112854,1
734,9.214569000000001,-0.6653899999999999,0.6052246,1
735,9.240905999999999,-0.6713866999999999,0.6052246,1
736,9.206192,-0.6917267,0.6279602,1
737,9.190628,-0.6977234,0.67225647,1
738,9.216965,-0.6941223000000001,0.68063354,1
739,9.232529,-0.75398254,0.73091125,1
740,9.226547,-0.85095215,0.7368927,1
741,9.203796,-0.7922821,0.7752074999999999,1
742,9.250488,-0.7228545999999999,0.8218994000000001,1
743,9.181061,-0.64624023,0.67944336,1
744,9.152328500000001,-0.7001189999999999,0.71655273,1
745,9.227737,-0.74679565,0.6447295999999999,1
746,9.248092999999999,-0.7527771,0.63394165,1
747,9.206192,-0.74320984,0.6746521,1
748,9.240905999999999,-0.7336273,0.6279602,1
749,9.263657,-0.6977234,0.6136017,1
750,9.239716,-0.6330719,0.5872649999999999,1
751,9.221756,-0.6498413000000001,0.6136017,1
752,9.185837,-0.6917267,0.6088104,1
753,9.226547,-0.73243713,0.65789795,1
754,9.263657,-0.76356506,0.6495055999999999,1
755,9.262466,-0.65940857,0.6555023,1
756,9.246902,-0.38049316,0.6171875,1
757,9.226547,-0.32900999999999997,0.66867065,1
758,9.263657,-0.6977234,0.6746521,1
759,9.254074000000001,-0.80426025,0.5573273,1
760,9.221756,-0.6618042,0.52500916,1
761,9.17627,-0.52893066,0.6171875,1
762,9.163101,-0.5935669,0.6279602,1
763,9.272034,-0.74679565,0.6351471,1
764,9.262466,-0.7096863,0.63993835,1
765,9.218169999999999,-0.6127166999999999,0.6447295999999999,1
766,9.248092999999999,-0.6618042,0.65908813,1
767,9.228943,-0.6821594,0.60162354,1
768,9.215775,-0.70729065,0.6255646,1
769,9.197815,-0.7216644,0.66867065,1
770,9.209793,-0.66778564,0.71655273,1
771,9.197815,-0.6546173000000001,0.6387329,1
772,9.230133,-0.6426544,0.69140625,1
773,9.209793,-0.69532776,0.70098877,1
774,9.268448,-0.70610046,0.7428894,1
775,9.293579,-0.68455505,0.6782379,1
776,9.220566,-0.66778564,0.70098877,1
777,9.151123,-0.7264556999999999,0.67944336,1
778,9.207397,-0.78271484,0.69140625,1
779,9.243300999999999,-0.70610046,0.7153473000000001,1
780,9.21936,-0.7120819,0.7045746,1
781,9.222961,-0.7156677,0.64112854,1
782,9.207397,-0.6905365,0.62316895,1
783,9.23851,-0.66659546,0.5884552,1
784,9.243300999999999,-0.7599640000000001,0.66267395,1
785,9.29837,-0.79467773,0.6818390000000001,1
786,9.281616,-0.7886963,0.78479004,1
787,9.226547,-0.8102417,0.71295166,1
788,9.179855,-0.7875061,0.7620392,1
789,9.193024000000001,-0.7851104999999999,0.68782043,1
790,9.224152,-0.6917267,0.56451416,1
791,9.225342,-0.5923767,0.5262146,1
792,9.23732,-0.5923767,0.41607666,1
793,9.286407,-0.55885315,0.39453125,1
794,9.179855,-0.5277251999999999,0.46875,1
795,9.151123,-0.542099,0.48431396,1
796,9.190628,-0.56962585,0.5298004,1
797,9.289992999999999,-0.6187134,0.50227356,1
798,9.323516999999999,-0.64863586,0.46994020000000003,1
799,9.254074000000001,-0.68814087,0.48910522,1
800,9.207397,-0.660614,0.5190277,1
801,9.171478,-0.680954,0.5872649999999999,1
802,9.200211,-0.7420044,0.5633239999999999,1
803,9.208588,-0.7408142,0.6447295999999999,1
804,9.194229,-0.7515869000000001,0.59324646,1
805,9.230133,-0.7384185999999999,0.7464751999999999,1
806,9.31752,-0.7264556999999999,0.7045746,1
807,9.299576,-0.67855835,0.5549469,1
808,9.182250999999999,-0.73483276,0.6363373000000001,1
809,9.146347,-0.7216644,0.6674651999999999,1
810,9.182250999999999,-0.64863586,0.66986084,1
811,9.224152,-0.69532776,0.6064148,1
812,9.221756,-0.6641998,0.66867065,1
813,9.264847,-0.68814087,0.6566925,1
814,9.230133,-0.67736816,0.60162354,1
815,9.23851,-0.7156677,0.5441741999999999,1
816,9.207397,-0.7013092,0.63993835,1
817,9.200211,-0.72406006,0.6650696,1
818,9.181061,-0.73243713,0.63035583,1
819,9.218169999999999,-0.67736816,0.64112854,1
820,9.251678,-0.6977234,0.6255646,1
821,9.254074000000001,-0.6989135999999999,0.65071106,1
822,9.224152,-0.6510315,0.6818390000000001,1
823,9.194229,-0.6917267,0.63993835,1
824,9.216965,-0.68455505,0.6052246,1
825,9.23851,-0.6582184,0.60762024,1
826,9.246902,-0.68814087,0.6136017,1
827,9.224152,-0.6510315,0.5992279,1
828,9.207397,-0.6713866999999999,0.6171875,1
829,9.193024000000001,-0.67736816,0.6243744000000001,1
830,9.242111,-0.7108916999999999,0.5848694000000001,1
831,9.214569000000001,-0.6474456999999999,0.6100005999999999,1
832,9.200211,-0.6618042,0.63035583,1
833,9.21936,-0.65940857,0.6136017,1
834,9.212173,-0.6701813,0.65190125,1
835,9.206192,-0.72406006,0.67225647,1
836,9.25528,-0.68814087,0.7357024999999999,1
837,9.236130000000001,-0.6797638,0.5286102,1
838,9.226547,-0.6905365,0.54296875,1
839,9.191833500000001,-0.6701813,0.5956421,1
840,9.175064,-0.7156677,0.6315613,1
841,9.188232000000001,-0.680954,0.686615,1
842,9.224152,-0.64505005,0.6566925,1
843,9.260071,-0.66659546,0.6375427,1
844,9.263657,-0.6821594,0.6136017,1
845,9.222961,-0.66300964,0.5956421,1
846,9.220566,-0.6641998,0.5704956,1
847,9.251678,-0.6318816999999999,0.62197876,1
848,9.224152,-0.6498413000000001,0.64112854,1
849,9.242111,-0.6582184,0.6279602,1
850,9.191833500000001,-0.6330719,0.70217896,1
851,9.224152,-0.660614,0.69140625,1
852,9.197815,-0.7048949999999999,0.6746521,1
853,9.209793,-0.6989135999999999,0.7069701999999999,1
854,9.234924000000001,-0.68814087,0.66148376,1
855,9.233734,-0.66659546,0.6650696,1
856,9.243300999999999,-0.7001189999999999,0.6447295999999999,1
857,9.208588,-0.70370483,0.6088104,1
858,9.225342,-0.7276459,0.58128357,1
859,9.206192,-0.6869506999999999,0.59085083,1
860,9.202606,-0.6653899999999999,0.65908813,1
861,9.226547,-0.66659546,0.6842345999999999,1
862,9.25647,-0.6761626999999999,0.60043335,1
863,9.193024000000001,-0.6582184,0.67944336,1
864,9.225342,-0.6534270999999999,0.61239624,1
865,9.215775,-0.680954,0.58366394,1
866,9.189438,-0.6821594,0.61239624,1
867,9.23732,-0.6977234,0.7153473000000001,1
868,9.352234,-0.68814087,0.666275,1
869,9.220566,-0.6833496,0.6088104,1
870,9.15831,-0.67855835,0.6566925,1
871,9.236130000000001,-0.72525024,0.6938019,1
872,9.25528,-0.7312316999999999,0.7440796,1
873,9.226547,-0.7084961,0.71055603,1
874,9.216965,-0.65701294,0.61479187,1
875,9.215775,-0.58039856,0.56811523,1
876,9.175064,-0.64863586,0.60162354,1
877,9.206192,-0.68455505,0.58366394,1
878,9.257675,-0.75398254,0.5848694000000001,1
879,9.257675,-0.6821594,0.5920563,1
880,9.210983,-0.67497253,0.59085083,1
881,9.215775,-0.67855835,0.6375427,1
882,9.215775,-0.7228545999999999,0.6088104,1
883,9.206192,-0.6977234,0.6375427,1
884,9.199005,-0.7300415,0.602829,1
885,9.208588,-0.71687317,0.6088104,1
886,9.227737,-0.70610046,0.6375427,1
887,9.236130000000001,-0.6869506999999999,0.58128357,1
888,9.213379,-0.6989135999999999,0.6207885999999999,1
889,9.181061,-0.6821594,0.61958313,1
890,9.214569000000001,-0.66659546,0.61958313,1
891,9.230133,-0.66659546,0.59085083,1
892,9.213379,-0.660614,0.5693054,1
893,9.21936,-0.621109,0.57888794,1
894,9.199005,-0.6402588,0.57888794,1
895,9.218169999999999,-0.6689911000000001,0.5262146,1
896,9.215775,-0.69532776,0.61120605,1
897,9.220566,-0.6869506999999999,0.5800781,1
898,9.246902,-0.6833496,0.6171875,1
899,9.284011999999999,-0.7024994000000001,0.54296875,1
900,9.210983,-0.6917267,0.56092834,1
901,9.169083,-0.680954,0.6243744000000001,1
902,9.17627,-0.7156677,0.6566925,1
903,9.15831,-0.71806335,0.66148376,1
904,9.252884,-0.71447754,0.57289124,1
905,9.303162,-0.7264556999999999,0.5345916999999999,1
906,9.250488,-0.65701294,0.5405731,1
907,9.203796,-0.6977234,0.5202179,1
908,9.21936,-0.6905365,0.5154419,1
909,9.242111,-0.74560547,0.46875,1
910,9.225342,-0.7503966999999999,0.53938293,1
911,9.206192,-0.7527771,0.58966064,1
912,9.216965,-0.67855835,0.60401917,1
913,9.234924000000001,-0.6187134,0.5884552,1
914,9.252884,-0.6402588,0.59324646,1
915,9.25528,-0.6438446,0.64112854,1
916,9.23732,-0.6007538,0.65071106,1
917,9.250488,-0.5756073,0.6375427,1
918,9.169083,-0.5756073,0.66148376,1
919,9.207397,-0.6031494000000001,0.61958313,1
920,9.205002,-0.6007538,0.6459198,1
921,9.273239,-0.6222991999999999,0.60762024,1
922,9.222961,-0.6929320999999999,0.58247375,1
923,9.205002,-0.66778564,0.6136017,1
924,9.222961,-0.6354675,0.602829,1
925,9.244507,-0.6414489999999999,0.5345916999999999,1
926,9.190628,-0.6941223000000001,0.48910522,1
927,9.208588,-0.7228545999999999,0.49388123,1
928,9.260071,-0.7384185999999999,0.5298004,1
929,9.295975,-0.76356506,0.5704956,1
930,9.268448,-0.7815094,0.5298004,1
931,9.196625,-0.81144714,0.6159973000000001,1
932,9.170288000000001,-0.8701019,0.63035583,1
933,9.209793,-0.8485565,0.6255646,1
934,9.245697,-0.74679565,0.6088104,1
935,9.25647,-0.73243713,0.57170105,1
936,9.249298,-0.6869506999999999,0.63993835,1
937,9.193024000000001,-0.65940857,0.63275146,1
938,9.184647,-0.6653899999999999,0.6064148,1
939,9.243300999999999,-0.7264556999999999,0.6471100000000001,1
940,9.25647,-0.68574524,0.6243744000000001,1
941,9.239716,-0.680954,0.62316895,1
942,9.205002,-0.6426544,0.6363373000000001,1
943,9.157119999999999,-0.68574524,0.7033844,1
944,9.161896,-0.70370483,0.65789795,1
945,9.234924000000001,-0.7276459,0.60762024,1
946,9.309142999999999,-0.72406006,0.5441741999999999,1
947,9.233734,-0.7120819,0.6207885999999999,1
948,9.15831,-0.68455505,0.7045746,1
949,9.171478,-0.6929320999999999,0.6997833000000001,1
950,9.21936,-0.67497253,0.6710663,1
951,9.278015,-0.6905365,0.67944336,1
952,9.273239,-0.68933105,0.6926116999999999,1
953,9.194229,-0.69532776,0.66867065,1
954,9.164291,-0.8880615,0.8721771,1
955,9.213379,-1.028122,0.82907104,1
956,9.149933,-0.08480835,0.56211853,1
957,9.227737,-0.026138306,0.71295166,1
958,9.240905999999999,-1.2411957,0.7620392,1
959,9.498291,-1.5057677999999999,0.5992279,1
960,9.286407,-1.036499,0.43522644,1
961,9.031417999999999,-0.93833923,0.79196167,1
962,8.970367,-1.285492,0.8877411000000001,1
963,9.245697,-1.1633911,0.7512665,1
964,9.322311000000001,-0.37449646,0.5298004,1
965,9.249298,-0.13148499,0.6363373000000001,1
966,9.324707,-0.22247314,0.64112854,1
967,9.410903999999999,-0.17936707,0.56092834,1
968,9.208588,-0.25360107,0.46754456,1
969,9.131973,-0.50138855,0.5597229,1
970,9.142746,-0.8138428000000001,0.5872649999999999,1
971,9.201400999999999,-0.8425598,0.5920563,1
972,9.136764999999999,-0.78271484,0.6650696,1
973,9.183456,-0.8138428000000001,0.72732544,1
974,9.251678,-0.82221985,0.6674651999999999,1
975,9.240905999999999,-0.7480011,0.62197876,1
976,9.221756,-0.70610046,0.65908813,1
977,9.218169999999999,-0.66778564,0.7069701999999999,1
978,9.227737,-0.71806335,0.70217896,1
979,9.201400999999999,-0.72525024,0.6650696,1
980,9.193024000000001,-0.71687317,0.65908813,1
981,9.230133,-0.7336273,0.63275146,1
982,9.282805999999999,-0.7024994000000001,0.6064148,1
983,9.262466,-0.6869506999999999,0.6471100000000001,1
984,9.23851,-0.71447754,0.602829,1
985,9.243300999999999,-0.76594543,0.5944519,1
986,9.222961,-0.8138428000000001,0.59085083,1
987,9.178664999999999,-0.799469,0.60162354,1
988,9.189438,-0.76475525,0.6483154000000001,1
989,9.260071,-0.7779235999999999,0.7153473000000001,1
990,9.340271000000001,-0.7312316999999999,0.5848694000000001,1
991,9.25647,-0.70370483,0.6566925,1
992,9.193024000000001,-0.7096863,0.686615,1
993,9.190628,-0.7001189999999999,0.7464751999999999,1
994,9.172684,-0.7048949999999999,0.77041626,1
995,9.200211,-0.6869506999999999,0.6770477,1
996,9.224152,-0.6546173000000001,0.6387329,1
997,9.260071,-0.64624023,0.6100005999999999,1
998,9.193024000000001,-0.68574524,0.55374146,1
999,9.25647,-0.7384185999999999,0.5453644,1
1000,9.29718,-0.6941223000000001,0.54655457,1
1001,9.252884,-0.70370483,0.5980376999999999,1
1002,9.206192,-0.6761626999999999,0.6279602,1
1003,9.189438,-0.6821594,0.61958313,1
1004,9.202606,-0.66778564,0.6483154000000001,1
1005,9.23732,-0.6725769,0.6243744000000001,1
1006,9.232529,-0.6797638,0.6674651999999999,1
1007,9.227737,-0.7372284,0.6710663,1
1008,9.226547,-0.7156677,0.64352417,1
1009,9.208588,-0.7096863,0.6758423000000001,1
1010,9.184647,-0.7192688,0.6818390000000001,1
1011,9.206192,-0.71687317,0.7321167,1
1012,9.212173,-0.7228545999999999,0.7464751999999999,1
1013,9.254074000000001,-0.7084961,0.7141571,1
1014,9.236130000000001,-0.6989135999999999,0.6471100000000001,1
1015,9.226547,-0.6797638,0.61958313,1
1016,9.233734,-0.6534270999999999,0.6531066999999999,1
1017,9.209793,-0.6977234,0.6351471,1
1018,9.184647,-0.64863586,0.66867065,1
1019,9.228943,-0.6701813,0.6818390000000001,1
1020,9.31752,-0.66300964,0.60162354,1
1021,9.246902,-0.69532776,0.5992279,1
1022,9.179855,-0.71806335,0.66267395,1
1023,9.175064,-0.7156677,0.6782379,1
1024,9.179855,-0.7671509,0.69740295,1
1025,9.230133,-0.7048949999999999,0.6782379,1
1026,9.226547,-0.6917267,0.6375427,1
1027,9.236130000000001,-0.6797638,0.63394165,1
1028,9.216965,-0.68455505,0.6375427,1
1029,9.222961,-0.70729065,0.6159973000000001,1
1030,9.264847,-0.7024994000000001,0.6171875,1
1031,9.248092999999999,-0.6977234,0.60401917,1
1032,9.230133,-0.7048949999999999,0.61839294,1
1033,9.189438,-0.72525024,0.6542969,1
1034,9.226547,-0.7120819,0.6674651999999999,1
1035,9.201400999999999,-0.7096863,0.6542969,1
1036,9.193024000000001,-0.72406006,0.6267699999999999,1
1037,9.216965,-0.7228545999999999,0.6255646,1
1038,9.224152,-0.7084961,0.602829,1
1039,9.213379,-0.7216644,0.6052246,1
1040,9.232529,-0.7300415,0.59324646,1
1041,9.230133,-0.69532776,0.60043335,1
1042,9.25528,-0.69532776,0.63993835,1
1043,9.251678,-0.6989135999999999,0.65071106,1
1044,9.227737,-0.7048949999999999,0.6638794,1
1045,9.196625,-0.7048949999999999,0.62916565,1
1046,9.205002,-0.720459,0.6961975,1
1047,9.166687,-0.73602295,0.7512665,1
1048,9.269638,-0.36132813,0.75006104,1
1049,9.214569000000001,-0.50738525,0.97631836,1
1050,9.312744,-0.9275665000000001,0.7979584,1
1051,9.289992999999999,-0.8641205,0.20419312,1
1052,9.209793,-0.7120819,0.33827209999999996,1
1053,9.262466,-0.87368774,0.44360352,1
1054,9.228943,-0.8772888000000001,0.5094452,1
1055,9.142746,-0.70610046,0.7907715,1
1056,9.203796,-0.6641998,0.8985138,1
1057,9.226547,-0.63067627,0.83984375,1
1058,9.191833500000001,-0.54089355,0.9176636,1
1059,9.193024000000001,-0.56843567,0.9020995999999999,1
1060,9.15831,-0.6366729999999999,0.89012146,1
1061,9.191833500000001,-0.65940857,0.9380188,1
1062,9.215775,-0.7013092,0.8985138,1
1063,9.242111,-0.739624,0.74887085,1
1064,9.242111,-0.7503966999999999,0.7141571,1
1065,9.286407,-0.85572815,0.6387329,1
1066,9.285202,-0.94911194,0.5704956,1
1067,9.285202,-0.93833923,0.44480896,1
1068,9.254074000000001,-0.9215698,0.31671143,1
1069,9.249298,-0.7527771,0.26643372,1
1070,9.199005,-0.5612488,0.39093018,1
1071,9.197815,-0.39126587,0.6495055999999999,1
1072,9.191833500000001,-0.43914795,0.83865356,1
1073,9.187042,-0.6187134,0.90449524,1
1074,9.196625,-0.7803191999999999,0.9894867,1
1075,9.200211,-0.79348755,1.0684966999999999,1
1076,9.165497,-0.739624,1.0529327,1
1077,9.187042,-0.67497253,0.99786377,1
1078,9.261261,-0.680954,0.8434448,1
1079,9.29718,-0.6354675,0.602829,1
1080,9.209793,-0.58758545,0.47473145,1
1081,9.137955,-0.58399963,0.48191833,1
1082,9.246902,-0.62350464,0.55015564,1
1083,9.232529,-0.6031494000000001,0.42565918,1
1084,9.240905999999999,-0.6701813,0.52500916,1
1085,9.165497,-0.66778564,0.67225647,1
1086,9.190628,-0.6246948,0.79556274,1
1087,9.244507,-0.55766296,0.81710815,1
1088,9.288788,-0.5037842,0.7225342,1
1089,9.299576,-0.52653503,0.7321167,1
1090,9.23851,-0.55526733,0.7835846,1
1091,9.165497,-0.6067352,0.8254851999999999,1
1092,9.134369,-0.76356506,0.83865356,1
1093,9.203796,-0.9000244000000001,0.76683044,1
1094,9.232529,-0.94911194,0.7716217,1
1095,9.187042,-0.8988341999999999,0.74887085,1
1096,9.203796,-0.8162384,0.8302765,1
1097,9.190628,-0.8497466999999999,0.83625793,1
1098,9.232529,-0.720459,0.80992126,1
1099,9.202606,-0.67736816,0.760849,1
1100,9.172684,-0.68814087,0.85661316,1
1101,9.25528,-0.6067352,0.83865356,1
1102,9.3546295,-0.5923767,0.7763977,1
1103,9.319916000000001,-0.5959625,0.70217896,1
1104,9.201400999999999,-0.58877563,0.6746521,1
1105,9.130783000000001,-0.62350464,0.666275,1
1106,9.141556,-0.55166626,0.75845337,1
1107,9.159514999999999,-0.54927063,0.8410492,1
1108,9.213379,-0.5792084,0.80033875,1
1109,9.282805999999999,-0.6426544,0.74168396,1
1110,9.291183,-0.6941223000000001,0.7333069000000001,1
1111,9.303162,-0.7156677,0.6710663,1
1112,9.278015,-0.6989135999999999,0.6267699999999999,1
1113,9.151123,-0.77911377,0.6746521,1
1114,9.163101,-0.78630066,0.83506775,1
1115,9.239716,-0.66659546,0.89012146,1
1116,9.2708435,-0.58399963,0.73928833,1
1117,9.125992,-0.5959625,0.8218994000000001,1
1118,9.088882,-0.64863586,0.9775238000000002,1
1119,9.147537,-0.7671509,1.0325775,1
1120,9.200211,-0.8066559,1.0684966999999999,1
1121,9.260071,-0.8018645999999999,0.99069214,1
1122,9.243300999999999,-0.6977234,0.9463959000000001,1
1123,9.178664999999999,-0.62709045,0.8422394,1
1124,9.122391,-0.61750793,0.8230896000000001,1
1125,9.094864,-0.6833496,0.8877411000000001,1
1126,9.143951,-0.65582275,0.82429504,1
1127,9.306747,-0.6653899999999999,0.8661804,1
1128,9.287598,-0.6653899999999999,0.7799988,1
1129,9.284011999999999,-0.63427734,0.8159026999999999,1
1130,9.260071,-0.5851898,0.86738586,1
1131,9.196625,-0.5504760999999999,0.8123169,1
1132,9.167892,-0.5648346,0.8769530999999999,1
1133,9.191833500000001,-0.64863586,0.8769530999999999,1
1134,9.170288000000001,-0.6989135999999999,0.8925171000000001,1
1135,9.170288000000001,-0.720459,0.9176636,1
1136,9.244507,-0.7803191999999999,0.91407776,1
1137,9.257675,-0.82580566,0.86738586,1
1138,9.251678,-0.8186188,0.83625793,1
1139,9.199005,-0.80067444,0.8195038,1
1140,9.187042,-0.7875061,0.8218994000000001,1
1141,9.233734,-0.7599640000000001,0.89730835,1
1142,9.226547,-0.79707336,0.92485046,1
1143,9.254074000000001,-0.7503966999999999,0.8877411000000001,1
1144,9.257675,-0.660614,0.7440796,1
1145,9.218169999999999,-0.65940857,0.67344666,1
1146,9.104446000000001,-0.6653899999999999,0.8015441999999999,1
1147,9.165497,-0.63905334,0.93322754,1
1148,9.182250999999999,-0.5744170999999999,0.95835876,1
1149,9.200211,-0.47984314,1.097229,1
1150,9.166687,-0.39006042,1.1918030000000002,1
1151,9.279221000000001,-0.43554688,1.0852509,1
1152,9.21936,-0.50857544,0.9523773000000001,1
1153,9.111618,-0.68574524,0.8266754000000001,1
1154,9.12001,-0.8760834000000001,0.78479004,1
1155,9.203796,-0.9467163000000001,0.8039398,1
1156,9.281616,-0.917984,0.74887085,1
1157,9.29837,-0.93473816,0.68063354,1
1158,9.312744,-0.87968445,0.6483154000000001,1
1159,9.318726,-0.80067444,0.5190277,1
1160,9.292389,-0.79707336,0.5633239999999999,1
1161,9.267242,-0.8018645999999999,0.602829,1
1162,9.230133,-0.79348755,0.6854248000000001,1
1163,9.197815,-0.7001189999999999,0.81710815,1
1164,9.197815,-0.6031494000000001,0.8590088,1
1165,9.193024000000001,-0.5564574999999999,0.89611816,1
1166,9.224152,-0.47865295,0.8949127,1
1167,9.215775,-0.43554688,0.9200591999999999,1
1168,9.184647,-0.43675232,0.90449524,1
1169,9.183456,-0.5217438,0.89730835,1
1170,9.15831,-0.5923767,0.9284363000000001,1
1171,9.159514999999999,-0.625885,0.89730835,1
1172,9.200211,-0.625885,0.8997040000000001,1
1173,9.234924000000001,-0.5600586,0.8697815000000001,1
1174,9.257675,-0.5277251999999999,0.7859802,1
1175,9.196625,-0.50738525,0.75845337,1
1176,9.200211,-0.5097656,0.8123169,1
1177,9.195419000000001,-0.53730774,0.8266754000000001,1
1178,9.201400999999999,-0.56962585,0.7931670999999999,1
1179,9.136764999999999,-0.58039856,0.89372253,1
1180,9.167892,-0.6079406999999999,0.9739226999999999,1
1181,9.243300999999999,-0.6641998,0.96673584,1
1182,9.282805999999999,-0.6618042,0.8422394,1
1183,9.233734,-0.6761626999999999,0.8159026999999999,1
1184,9.228943,-0.66778564,0.88534546,1
1185,9.202606,-0.6498413000000001,0.89372253,1
1186,9.199005,-0.6366729999999999,0.8434448,1
1187,9.209793,-0.6187134,0.77760315,1
1188,9.203796,-0.58039856,0.8374634,1
1189,9.291183,-0.8018645999999999,0.73928833,1
1190,9.353439,-0.9107970999999999,0.6854248000000001,1
1191,9.352234,-0.8581238000000001,0.72013855,1
1192,9.2313385,-0.7480011,0.85661316,1
1193,9.049377,-0.6725769,0.9487915000000001,1
1194,8.971558,-0.60194397,0.90808105,1
1195,9.251678,-0.7300415,0.8302765,1
1196,9.428848,-0.7815094,0.7548523,1
1197,9.355835,-0.625885,0.8817444,1
1198,9.17746,-0.48822020000000005,0.8949127,1
1199,9.145142,-0.5432892,0.87815857,1
1200,9.094864,-0.59954834,0.82429504,1
1201,9.130783000000001,-0.56843567,0.765625,1
1202,9.29837,-0.60913086,0.8039398,1
1203,9.328292999999999,-0.56843567,0.7692260999999999,1
1204,9.172684,-0.46188354,0.78837585,1
1205,9.068527,-0.3876648,1.0278015,1
1206,9.048172000000001,-0.46788025,1.0792694,1
1207,9.167892,-0.5744170999999999,1.0086365,1
1208,9.258865,-0.65701294,0.9894867,1
1209,9.249298,-0.7444,0.9679413,1
1210,9.227737,-0.7875061,0.9607544,1
1211,9.159514999999999,-0.77194214,0.9416046,1
1212,9.111618,-0.74320984,1.0002594,1
1213,9.074508999999999,-0.621109,1.1103973,1
1214,9.221756,-0.55885315,1.0673065000000002,1
1215,9.3103485,-0.49899292,0.8542175,1
1216,9.330688,-0.5456848000000001,0.77401733,1
1217,9.286407,-0.6115265000000001,0.70578,1
1218,9.203796,-0.7013092,0.760849,1
1219,9.17627,-0.7024994000000001,0.7823944,1
1220,9.210983,-0.75398254,0.7512665,1
1221,9.209793,-0.73483276,0.72732544,1
1222,9.243300999999999,-0.64505005,0.78118896,1
1223,9.2313385,-0.67736816,0.8254851999999999,1
1224,9.242111,-0.6905365,0.82429504,1
1225,9.267242,-0.660614,0.8841399999999999,1
1226,9.208588,-0.581604,0.93322754,1
1227,9.149933,-0.56843567,0.9427948,1
1228,9.187042,-0.5504760999999999,1.0349731,1
1229,9.195419000000001,-0.5792084,1.0301970999999999,1
1230,9.185837,-0.55766296,1.0122375,1
1231,9.201400999999999,-0.6318816999999999,0.9990691999999999,1
1232,9.222961,-0.6929320999999999,1.0254059000000002,1
1233,9.154724,-0.71806335,1.0265961,1
1234,9.114014,-0.7216644,1.0062408,1
1235,9.146347,-0.72883606,1.0397644,1
1236,9.207397,-0.72406006,1.0002594,1
1237,9.220566,-0.7024994000000001,0.9451904000000001,1
1238,9.209793,-0.6618042,0.9116820999999999,1
1239,9.2708435,-0.71687317,0.8817444,1
1240,9.201400999999999,-0.7527771,0.9272461,1
1241,9.091277999999999,-0.6989135999999999,1.0170288,1
1242,9.135558999999999,-0.7084961,0.94758606,1
1243,9.240905999999999,-0.6618042,0.9679413,1
1244,9.25647,-0.7276459,0.9116820999999999,1
1245,9.227737,-0.7228545999999999,1.0301970999999999,1
1246,9.13916,-0.7096863,1.04216,1
1247,9.123596000000001,-0.67378235,1.0744781,1
1248,9.262466,-0.67497253,0.9918823,1
1249,9.25528,-0.6917267,0.92604065,1
1250,9.169083,-0.720459,0.9739226999999999,1
1251,9.115219,-0.75756836,1.04216,1
1252,9.103241,-0.7156677,1.0684966999999999,1
1253,9.196625,-0.720459,0.9930725,1
1254,9.273239,-0.71447754,0.9811095999999999,1
1255,9.249298,-0.63905334,0.9200591999999999,1
1256,9.199005,-0.64863586,0.9020995999999999,1
1257,9.196625,-0.7156677,0.9487915000000001,1
1258,9.2313385,-0.7563781999999999,0.96195984,1
1259,9.221756,-0.73602295,0.9499816999999999,1
1260,9.155914,-0.68814087,0.9463959000000001,1
1261,9.200211,-0.67736816,1.0062408,1
1262,9.185837,-0.69532776,1.0637054,1
1263,9.181061,-0.7276459,1.1032104,1
1264,9.178664999999999,-0.7276459,1.097229,1
1265,9.183456,-0.71806335,1.0816649999999999,1
1266,9.184647,-0.71687317,0.9990691999999999,1
1267,9.172684,-0.7001189999999999,0.99786377,1
1268,9.143951,-0.68574524,1.0649108999999999,1
1269,9.125992,-0.6474456999999999,1.0313873,1
1270,9.106842,-0.64863586,1.0445556999999999,1
1271,9.135558999999999,-0.67497253,0.99786377,1
1272,9.305557,-0.64624023,0.9427948,1
1273,9.382172,-0.58639526,0.91885376,1
1274,9.319916000000001,-0.5935669,1.0218048,1
1275,9.149933,-0.67736816,0.9966735999999999,1
1276,9.055359,-0.90960693,1.0768738000000002,1
1277,9.189438,-1.0293120999999998,1.0984192,1
1278,9.345061999999999,-1.0329131999999999,1.0481415,1
1279,9.324707,-0.9167938,1.1103973,1
1280,9.170288000000001,-0.83418274,1.2504578000000002,1
1281,9.159514999999999,-0.80545044,1.2109528,1
1282,9.21936,-0.7384185999999999,1.0373688,1
1283,9.191833500000001,-0.6522217,1.0816649999999999,1
1284,9.13916,-0.66659546,1.160675,1
1285,9.131973,-0.7300415,1.1199646,1
1286,9.146347,-0.73602295,1.0098419,1
1287,9.191833500000001,-0.6582184,0.9607544,1
1288,9.210983,-0.5899810999999999,0.8697815000000001,1
1289,9.151123,-0.5384979,0.85661316,1
1290,9.133179,-0.43914795,0.92962646,1
1291,9.135558999999999,-0.46427917,1.0026549999999999,1
1292,9.175064,-0.4846344,1.1415253,1
1293,9.157119999999999,-0.5528717,1.0613098,1
1294,9.157119999999999,-0.6701813,1.0756836,1
1295,9.239716,-0.78630066,1.0002594,1
1296,9.295975,-0.9323425,1.0373688,1
1297,9.225342,-0.93473816,1.0481415,1
1298,9.090073,-0.8772888000000001,1.0888518999999999,1
1299,9.081696,-0.8461609,1.1032104,1
1300,9.165497,-0.7515869000000001,1.0601196000000002,1
1301,9.264847,-0.7420044,1.018219,1
1302,9.274429,-0.7228545999999999,0.9811095999999999,1
1303,9.240905999999999,-0.71687317,1.1080017,1
1304,9.169083,-0.71328735,1.0122375,1
1305,9.159514999999999,-0.6905365,0.98469543,1
1306,9.181061,-0.6905365,1.0014648000000002,1
1307,9.193024000000001,-0.64624023,1.0625153,1
1308,9.201400999999999,-0.6522217,1.0613098,1
1309,9.166687,-0.680954,1.1044159,1
1310,9.166687,-0.6103363,1.0840607,1
1311,9.185837,-0.63427734,1.0864563,1
1312,9.195419000000001,-0.61631775,1.0242004,1
1313,9.157119999999999,-0.62709045,1.0026549999999999,1
1314,9.182250999999999,-0.62709045,1.0050507,1
1315,9.245697,-0.66778564,1.0565186000000002,1
1316,9.23851,-0.71447754,0.95596313,1
1317,9.148727000000001,-0.7731323,0.9703369000000001,1
1318,9.12001,-0.82221985,1.0457458,1
1319,9.165497,-0.8533478000000001,1.0876465,1
1320,9.166687,-0.85095215,1.0565186000000002,1
1321,9.21936,-0.77194214,0.9930725,1
1322,9.187042,-0.71447754,0.9822998,1
1323,9.165497,-0.6510315,1.0301970999999999,1
1324,9.173874,-0.6797638,1.0242004,1
1325,9.249298,-0.7024994000000001,0.9775238000000002,1
1326,9.240905999999999,-0.72406006,0.9380188,1
1327,9.242111,-0.720459,0.9404144,1
1328,9.234924000000001,-0.7048949999999999,0.97273254,1
1329,9.209793,-0.72883606,0.94758606,1
1330,9.182250999999999,-0.7336273,0.9715271000000001,1
1331,9.13916,-0.7491913,1.0218048,1
1332,9.15831,-0.7372284,1.0529327,1
1333,9.187042,-0.7384185999999999,1.0265961,1
1334,9.210983,-0.6977234,1.0385742,1
1335,9.195419000000001,-0.71447754,1.0373688,1
1336,9.189438,-0.6713866999999999,1.0900421,1
1337,9.17746,-0.6989135999999999,1.0206146,1
1338,9.185837,-0.7312316999999999,0.9894867,1
1339,9.207397,-0.76116943,0.9344177,1
1340,9.268448,-0.76834106,0.8817444,1
1341,9.239716,-0.7108916999999999,0.8697815000000001,1
1342,9.159514999999999,-0.6869506999999999,0.8913269,1
1343,9.131973,-0.7491913,0.9284363000000001,1
1344,9.15831,-0.73243713,0.96673584,1
1345,9.215775,-0.7420044,0.978714,1
1346,9.195419000000001,-0.6534270999999999,0.9859009,1
1347,9.161896,-0.6498413000000001,1.0457458,1
1348,9.23732,-0.64624023,1.1283569,1
1349,9.216965,-0.6402588,0.99069214,1
1350,9.179855,-0.5959625,1.0673065000000002,1
1351,9.1128235,-0.58639526,1.0529327,1
1352,9.117614999999999,-0.6187134,1.0553284,1
1353,9.160706,-0.6510315,1.0625153,1
1354,9.199005,-0.6917267,0.9966735999999999,1
1355,9.210983,-0.6941223000000001,1.0050507,1
1356,9.21936,-0.6510315,0.96913147,1
1357,9.175064,-0.65701294,0.9859009,1
1358,9.196625,-0.739624,1.0014648000000002,1
1359,9.225342,-0.7599640000000001,1.0014648000000002,1
1360,9.212173,-0.71328735,1.0002594,1
1361,9.199005,-0.6438446,0.99427795,1
1362,9.230133,-0.6474456999999999,0.9822998,1
1363,9.181061,-0.68574524,0.9966735999999999,1
1364,9.167892,-0.7024994000000001,1.0194092,1
1365,9.206192,-0.6929320999999999,1.0433502000000001,1
1366,9.222961,-0.6833496,1.0661011,1
1367,9.196625,-0.6869506999999999,1.0397644,1
1368,9.210983,-0.6941223000000001,1.0469513000000001,1
1369,9.161896,-0.6761626999999999,1.0325775,1
1370,9.149933,-0.67736816,1.0613098,1
1371,9.167892,-0.66659546,1.0804749,1
1372,9.187042,-0.6917267,1.1068115,1
1373,9.212173,-0.7527771,1.0852509,1
1374,9.187042,-0.7013092,1.1175841999999998,1
1375,9.213379,-0.6701813,1.0577239999999999,1
1376,9.157119999999999,-0.6905365,1.0780792,1
1377,9.151123,-0.7013092,1.0325775,1
1378,9.184647,-0.7228545999999999,1.0529327,1
1379,9.222961,-0.7228545999999999,1.0541382,1
1380,9.190628,-0.7503966999999999,1.0529327,1
1381,9.157119999999999,-0.72883606,1.1582794,1
1382,9.233734,-0.7480011,1.1451111,1
1383,9.232529,-0.70610046,1.033783,1
1384,9.200211,-0.72406006,1.0493469,1
1385,9.196625,-0.7515869000000001,1.0565186000000002,1
1386,9.169083,-0.75756836,1.1307526,1
1387,9.123596000000001,-0.75756836,1.1056061000000001,1
1388,9.164291,-0.7444,1.0912476,1
1389,9.215775,-0.67855835,1.0661011,1
1390,9.213379,-0.70370483,1.0637054,1
1391,9.188232000000001,-0.70729065,1.0744781,1
1392,9.210983,-0.7276459,1.0565186000000002,1
1393,9.225342,-0.73243713,1.0349731,1
1394,9.193024000000001,-0.71447754,1.033783,1
1395,9.17627,-0.71447754,1.0026549999999999,1
1396,9.142746,-0.68814087,0.99069214,1
1397,9.155914,-0.6977234,1.0242004,1
1398,9.182250999999999,-0.7276459,1.033783,1
1399,9.187042,-0.68455505,1.0349731,1
1400,9.230133,-0.6941223000000001,1.0529327,1
1401,9.215775,-0.680954,1.0577239999999999,1
1402,9.188232000000001,-0.66659546,1.0265961,1
1403,9.184647,-0.63786316,1.0289917,1
1404,9.189438,-0.6618042,1.0649108999999999,1
1405,9.220566,-0.66659546,1.073288,1
1406,9.207397,-0.69651794,1.0684966999999999,1
1407,9.194229,-0.6941223000000001,1.0828552,1
1408,9.210983,-0.7001189999999999,1.0577239999999999,1
1409,9.169083,-0.74320984,1.0289917,1
1410,9.172684,-0.7444,1.0768738000000002,1
1411,9.200211,-0.7503966999999999,1.0146332,1
1412,9.244507,-0.783905,0.99786377,1
1413,9.189438,-0.7491913,0.98350525,1
1414,9.164291,-0.7563781999999999,1.0218048,1
1415,9.17746,-0.71447754,1.0601196000000002,1
1416,9.179855,-0.6917267,1.0373688,1
1417,9.149933,-0.64863586,1.0864563,1
1418,9.171478,-0.7156677,1.0673065000000002,1
1419,9.187042,-0.71687317,1.0050507,1
1420,9.14035,-0.71447754,1.0110321,1
1421,9.187042,-0.7372284,0.9308318999999999,1
1422,9.17627,-0.6977234,0.8913269,1
1423,9.190628,-0.7599640000000001,0.8877411000000001,1
1424,9.175064,-0.79707336,0.9308318999999999,1
1425,9.21936,-0.8593291999999999,1.0218048,1
1426,9.263657,-0.8497466999999999,0.98709106,1
1427,9.266052,-0.79348755,0.9751281999999999,1
1428,9.21936,-0.7420044,0.93562317,1
1429,9.240905999999999,-0.62828064,0.90808105,1
1430,9.151123,-0.5277251999999999,0.9822998,1
1431,9.141556,-0.51815796,1.0577239999999999,1
1432,9.17627,-0.542099,1.0553284,1
1433,9.165497,-0.5133667000000001,1.0948334,1
1434,9.125992,-0.48703003,1.0541382,1
1435,9.187042,-0.46427917,1.0373688,1
1436,9.258865,-0.48703003,0.92245483,1
1437,9.226547,-0.58758545,0.8601989999999999,1
1438,9.23851,-0.66659546,0.8554076999999999,1
1439,9.226547,-0.71806335,0.8601989999999999,1
1440,9.240905999999999,-0.7922821,0.86499023,1
1441,9.207397,-0.83418274,0.9020995999999999,1
1442,9.182250999999999,-0.85095215,0.92485046,1
1443,9.167892,-0.84017944,0.96554565,1
1444,9.202606,-0.85095215,0.9822998,1
1445,9.188232000000001,-0.8138428000000001,1.1115875,1
1446,9.17746,-0.8186188,1.1403198,1
1447,9.246902,-0.82940674,1.1953888000000001,1
1448,9.199005,-0.7910919,1.1343383999999999,1
1449,9.189438,-0.7372284,1.1714478000000002,1
1450,9.149933,-0.7336273,1.1546936,1
1451,9.134369,-0.74679565,1.1295471000000001,1
1452,9.108032000000001,-0.720459,1.0912476,1
1453,9.165497,-0.7096863,1.0110321,1
1454,9.21936,-0.69532776,0.94400024,1
1455,9.257675,-0.6869506999999999,0.8949127,1
1456,9.244507,-0.6989135999999999,0.8135071,1
1457,9.23732,-0.7096863,0.89012146,1
1458,9.167892,-0.739624,0.9416046,1
1459,9.207397,-0.7779235999999999,0.9308318999999999,1
1460,9.221756,-0.7551727,0.9009094000000001,1
1461,9.244507,-0.7024994000000001,0.88534546,1
1462,9.189438,-0.6941223000000001,0.9894867,1
1463,9.137955,-0.6941223000000001,1.0361786,1
1464,9.201400999999999,-0.7120819,1.0481415,1
1465,9.175064,-0.68455505,1.1115875,1
1466,9.164291,-0.65940857,1.0529327,1
1467,9.185837,-0.66659546,1.033783,1
1468,9.182250999999999,-0.65940857,1.0206146,1
1469,9.197815,-0.67378235,1.0122375,1
1470,9.184647,-0.7096863,1.0206146,1
1471,9.17746,-0.7491913,1.0206146,1
1472,9.21936,-0.7731323,1.0218048,1
1473,9.227737,-0.77194214,1.0433502000000001,1
1474,9.15831,-0.76116943,1.0409698,1
1475,9.173874,-0.75756836,0.9859009,1
1476,9.224152,-0.7480011,1.0289917,1
1477,9.213379,-0.76116943,1.0122375,1
1478,9.193024000000001,-0.7420044,0.99069214,1
1479,9.169083,-0.7503966999999999,1.0720825,1
1480,9.173874,-0.6821594,1.0469513000000001,1
1481,9.2313385,-0.6797638,1.0409698,1
1482,9.224152,-0.67855835,0.9811095999999999,1
1483,9.131973,-0.67497253,1.0146332,1
1484,9.145142,-0.7120819,1.0637054,1
1485,9.184647,-0.6917267,0.9990691999999999,1
1486,9.193024000000001,-0.680954,0.98469543,1
1487,9.17627,-0.6534270999999999,1.0265961,1
1488,9.188232000000001,-0.67497253,1.0445556999999999,1
1489,9.185837,-0.6869506999999999,1.0098419,1
1490,9.191833500000001,-0.72525024,1.0230103000000002,1
1491,9.262466,-0.76356506,1.0206146,1
1492,9.267242,-0.6977234,1.0457458,1
1493,9.133179,-0.7048949999999999,1.0194092,1
1494,9.222961,-0.6869506999999999,0.9571685999999999,1
1495,9.311539,-0.7408142,1.0553284,1
1496,9.143951,-0.7515869000000001,0.99069214,1
1497,9.024231,-0.76356506,1.0625153,1
1498,9.205002,-0.73243713,1.1463013000000002,1
1499,9.305557,-0.7420044,1.0960236,1
1500,9.087677000000001,-0.6905365,0.9918823,1
1501,9.086487,-0.7120819,1.0026549999999999,1
1502,9.200211,-0.7120819,1.0110321,1
1503,9.197815,-0.7276459,1.0517426,1
1504,9.201400999999999,-0.739624,1.0708923000000001,1
1505,9.152328500000001,-0.67497253,1.0661011,1
1506,9.183456,-0.7001189999999999,0.9822998,1
1507,9.215775,-0.7156677,0.9822998,1
1508,9.201400999999999,-0.72525024,1.0002594,1
1509,9.175064,-0.7013092,1.0661011,1
1510,9.135558999999999,-0.7767334,1.0948334,1
1511,9.164291,-0.7120819,1.1379242,1
1512,9.175064,-0.7048949999999999,1.1259613000000002,1
1513,9.157119999999999,-0.6905365,1.1379242,1
1514,9.260071,-0.70370483,1.0242004,1
1515,9.252884,-0.68574524,0.9751281999999999,1
1516,9.205002,-0.73483276,1.0098419,1
1517,9.110428,-0.7623595999999999,1.1008148000000002,1
1518,9.0733185,-0.7982788000000001,1.1894073,1
1519,9.111618,-0.7731323,1.136734,1
1520,9.197815,-0.7216644,1.0804749,1
1521,9.14035,-0.6713866999999999,0.9930725,1
1522,9.154724,-0.6366729999999999,0.9751281999999999,1
1523,9.172684,-0.6498413000000001,1.0289917,1
1524,9.190628,-0.6582184,1.1403198,1
1525,9.254074000000001,-0.7228545999999999,1.2097473,1
1526,9.236130000000001,-0.8018645999999999,1.0780792,1
1527,9.268448,-0.84495544,0.9607544,1
1528,9.220566,-0.8772888000000001,1.0122375,1
1529,9.151123,-0.8497466999999999,1.0553284,1
1530,9.21936,-0.82580566,1.1199646,1
1531,9.295975,-0.8174286000000001,1.0780792,1
1532,9.291183,-0.87249756,1.0409698,1
1533,9.199005,-0.8856659,1.0373688,1
1534,9.197815,-0.8246155000000001,1.0158234,1
1535,9.201400999999999,-0.7875061,1.0409698,1
1536,9.188232000000001,-0.7503966999999999,1.1139832,1
1537,9.143951,-0.6354675,1.1570892,1
1538,9.161896,-0.6127166999999999,1.1199646,1
1539,9.167892,-0.58758545,1.1666565,1
1540,9.207397,-0.57681274,1.1594696000000002,1
1541,9.122391,-0.54808044,1.1319427,1
1542,9.125992,-0.59117126,1.1678619,1
1543,9.064941000000001,-0.6534270999999999,1.2624207,1
1544,9.103241,-0.6498413000000001,1.2169341999999999,1
1545,9.142746,-0.6641998,1.160675,1
1546,9.135558999999999,-0.6905365,1.0984192,1
1547,9.200211,-0.68933105,1.0361786,1
1548,9.230133,-0.71447754,1.0170288,1
1549,9.164291,-0.7551727,0.95835876,1
1550,9.116408999999999,-0.80426025,1.0397644,1
1551,9.210983,-0.8820648000000001,0.9882965,1
1552,9.252884,-0.8760834000000001,1.0074463,1
1553,9.286407,-0.838974,0.9799041999999999,1
1554,9.213379,-0.7982788000000001,0.9739226999999999,1
1555,9.148727000000001,-0.6833496,0.9715271000000001,1
1556,9.122391,-0.7013092,0.94758606,1
1557,9.183456,-0.7276459,0.9607544,1
1558,9.272034,-0.7276459,0.9811095999999999,1
1559,9.263657,-0.72406006,0.9894867,1
1560,9.200211,-0.6546173000000001,1.0002594,1
1561,9.161896,-0.63786316,1.0673065000000002,1
1562,9.178664999999999,-0.62828064,1.0625153,1
1563,9.189438,-0.5959625,1.0194092,1
1564,9.224152,-0.5959625,1.0445556999999999,1
1565,9.214569000000001,-0.61990356,0.9930725,1
1566,9.213379,-0.6402588,1.0122375,1
1567,9.155914,-0.7216644,1.0194092,1
1568,9.163101,-0.7300415,0.99546814,1
1569,9.173874,-0.76356506,1.0194092,1
1570,9.199005,-0.77433777,0.99427795,1
1571,9.207397,-0.76116943,0.9859009,1
1572,9.209793,-0.7767334,0.97631836,1
1573,9.210983,-0.74679565,1.0062408,1
1574,9.183456,-0.7491913,1.0289917,1
1575,9.160706,-0.7444,1.0158234,1
1576,9.209793,-0.76834106,1.0194092,1
1577,9.213379,-0.783905,1.0194092,1
1578,9.190628,-0.75398254,1.0577239999999999,1
1579,9.137955,-0.74679565,1.1534882,1
1580,9.183456,-0.7013092,1.2253113000000002,1
1581,9.236130000000001,-0.6833496,1.160675,1
1582,9.212173,-0.6330719,1.0792694,1
1583,9.130783000000001,-0.66659546,1.1379242,1
1584,9.12001,-0.6821594,1.1403198,1
1585,9.130783000000001,-0.680954,1.1427155,1
1586,9.159514999999999,-0.6653899999999999,1.0864563,1
1587,9.183456,-0.6534270999999999,0.99786377,1
1588,9.212173,-0.6127166999999999,0.98469543,1
1589,9.226547,-0.64863586,0.95596313,1
1590,9.212173,-0.66778564,1.0098419,1
1591,9.240905999999999,-0.7503966999999999,1.0134277,1
1592,9.225342,-0.7384185999999999,1.0230103000000002,1
1593,9.183456,-0.7408142,1.097229,1
1594,9.154724,-0.73483276,1.1187744,1
1595,9.163101,-0.7120819,1.1654663,1
1596,9.215775,-0.7336273,1.1271514999999999,1
1597,9.205002,-0.7420044,1.152298,1
1598,9.166687,-0.73243713,1.0996246,1
1599,9.149933,-0.7216644,1.1475066999999999,1
1600,9.179855,-0.7336273,1.1439209,1
1601,9.207397,-0.6701813,1.1379242,1
1602,9.185837,-0.67736816,1.1403198,1
1603,9.165497,-0.69651794,1.1008148000000002,1
1604,9.167892,-0.66300964,1.12117,1
1605,9.195419000000001,-0.67378235,1.1570892,1
1606,9.200211,-0.6797638,1.1499023000000002,1
1607,9.157119999999999,-0.71328735,1.160675,1
1608,9.142746,-0.6977234,1.1750336000000001,1
1609,9.149933,-0.72406006,1.1546936,1
1610,9.210983,-0.7096863,1.1259613000000002,1
1611,9.191833500000001,-0.68814087,1.1235657,1
1612,9.173874,-0.7216644,1.1702576,1
1613,9.157119999999999,-0.73483276,1.2217255,1
1614,9.193024000000001,-0.7336273,1.0900421,1
1615,9.206192,-0.7420044,1.0960236,1
1616,9.159514999999999,-0.69651794,1.112793,1
1617,9.153519000000001,-0.7336273,1.136734,1
1618,9.154724,-0.75756836,1.1151886,1
1619,9.178664999999999,-0.7384185999999999,1.0804749,1
1620,9.216965,-0.7527771,1.1247559,1
1621,9.149933,-0.65582275,1.1546936,1
1622,9.141556,-0.6701813,1.1139832,1
1623,9.199005,-0.69651794,1.0924377,1
1624,9.205002,-0.68574524,1.0900421,1
1625,9.228943,-0.67378235,1.1271514999999999,1
1626,9.152328500000001,-0.680954,1.1391296,1
1627,9.13916,-0.660614,1.1427155,1
1628,9.166687,-0.7048949999999999,1.1774292,1
1629,9.195419000000001,-0.69651794,1.1044159,1
1630,9.224152,-0.7228545999999999,1.1091919,1
1631,9.210983,-0.7599640000000001,1.2049713,1
1632,9.187042,-0.7551727,1.1463013000000002,1
1633,9.189438,-0.7707366999999999,1.1355286,1
1634,9.173874,-0.72883606,1.1558838,1
1635,9.199005,-0.71328735,1.1451111,1
1636,9.183456,-0.7024994000000001,1.1642609,1
1637,9.208588,-0.7120819,1.1391296,1
1638,9.203796,-0.71447754,1.1091919,1
1639,9.183456,-0.6869506999999999,1.0553284,1
1640,9.172684,-0.680954,1.0792694,1
1641,9.173874,-0.67378235,1.0792694,1
1642,9.178664999999999,-0.64863586,1.1056061000000001,1
1643,9.215775,-0.64624023,1.0278015,1
1644,9.233734,-0.6366729999999999,1.0792694,1
1645,9.178664999999999,-0.68455505,1.1175841999999998,1
1646,9.196625,-0.7120819,1.176239,1
1647,9.190628,-0.7096863,1.0696868999999998,1
1648,9.170288000000001,-0.7851104999999999,1.0744781,1
1649,9.116408999999999,-0.80426025,1.1738434,1
1650,9.111618,-0.7623595999999999,1.2025757,1
1651,9.109222,-0.7503966999999999,1.2085571000000002,1
1652,9.155914,-0.7372284,1.0876465,1
1653,9.201400999999999,-0.70729065,1.0289917,1
1654,9.17746,-0.64863586,1.0409698,1
1655,9.169083,-0.6761626999999999,0.98350525,1
1656,9.188232000000001,-0.66300964,0.9775238000000002,1
1657,9.227737,-0.6905365,1.0278015,1
1658,9.230133,-0.6354675,1.0098419,1
1659,9.195419000000001,-0.61631775,1.0792694,1
1660,9.131973,-0.6151123000000001,1.0924377,1
1661,9.166687,-0.6653899999999999,1.1403198,1
1662,9.155914,-0.71806335,1.1558838,1
1663,9.179855,-0.69651794,1.1463013000000002,1
1664,9.199005,-0.6977234,1.1307526,1
1665,9.175064,-0.7024994000000001,1.0780792,1
1666,9.173874,-0.7192688,1.0768738000000002,1
1667,9.153519000000001,-0.7192688,1.0720825,1
1668,9.147537,-0.72406006,1.0589142,1
1669,9.178664999999999,-0.7192688,1.0469513000000001,1
1670,9.215775,-0.72525024,1.018219,1
1671,9.243300999999999,-0.72883606,0.9571685999999999,1
1672,9.220566,-0.72525024,0.99786377,1
1673,9.183456,-0.67855835,1.018219,1
1674,9.166687,-0.6941223000000001,1.018219,1
1675,9.199005,-0.6941223000000001,1.0050507,1
1676,9.227737,-0.7013092,1.0589142,1
1677,9.189438,-0.71687317,1.073288,1
1678,9.171478,-0.7013092,1.0852509,1
1679,9.242111,-0.6977234,1.1427155,1
1680,9.225342,-0.6689911000000001,1.018219,1
1681,9.200211,-0.67855835,1.073288,1
1682,9.142746,-0.7024994000000001,1.1115875,1
1683,9.103241,-0.7444,1.1343383999999999,1
1684,9.128387,-0.7300415,1.1199646,1
1685,9.210983,-0.68814087,1.1415253,1
1686,9.207397,-0.67378235,1.0804749,1
1687,9.210983,-0.6246948,1.0708923000000001,1
1688,9.194229,-0.6725769,1.0469513000000001,1
1689,9.197815,-0.7024994000000001,1.0768738000000002,1
1690,9.187042,-0.73602295,1.1008148000000002,1
1691,9.190628,-0.72525024,1.1235657,1
1692,9.173874,-0.71328735,1.136734,1
1693,9.164291,-0.7276459,1.1175841999999998,1
1694,9.17627,-0.7120819,1.1391296,1
1695,9.152328500000001,-0.7013092,1.1307526,1
1696,9.193024000000001,-0.6797638,1.1056061000000001,1
1697,9.202606,-0.69532776,1.0984192,1
1698,9.232529,-0.7084961,1.0996246,1
1699,9.227737,-0.67855835,1.0649108999999999,1
1700,9.203796,-0.6618042,1.0900421,1
1701,9.153519000000001,-0.67378235,1.112793,1
1702,9.166687,-0.7108916999999999,1.0936431999999998,1
1703,9.171478,-0.72883606,1.0469513000000001,1
1704,9.216965,-0.73602295,1.0684966999999999,1
1705,9.197815,-0.68814087,1.12117,1
1706,9.213379,-0.64863586,1.1044159,1
1707,9.167892,-0.59477234,1.1103973,1
1708,9.15831,-0.5827941999999999,1.0984192,1
1709,9.227737,-0.59117126,1.0589142,1
1710,9.213379,-0.61631775,1.0744781,1
1711,9.167892,-0.7408142,1.1666565,1
1712,9.254074000000001,-0.7671509,1.3043213,1
1713,9.221756,-0.7420044,1.1905975,1
1714,9.1128235,-0.74320984,1.2133483999999999,1
1715,9.099655,-0.7767334,1.2432709,1
1716,9.093674,-0.79707336,1.3569946000000002,1
1717,9.09845,-0.8485565,1.3605957,1
1718,9.226547,-0.8497466999999999,1.2863617,1
1719,9.218169999999999,-0.8162384,1.2025757,1
1720,9.085281,-0.76834106,1.0349731,1
1721,9.011063,-0.73602295,1.0984192,1
1722,9.167892,-0.7312316999999999,1.097229,1
1723,9.305557,-0.81144714,1.0864563,1
1724,9.227737,-0.80426025,1.1451111,1
1725,9.149933,-0.7192688,1.04216,1
1726,9.205002,-0.7300415,0.978714,1
1727,9.205002,-0.7551727,0.9822998,1
1728,9.172684,-0.79707336,1.0349731,1
1729,9.184647,-0.78271484,1.12117,1
1730,9.155914,-0.75756836,1.1068115,1
1731,9.181061,-0.74679565,1.212143,1
1732,9.155914,-0.7551727,1.3462219,1
1733,9.068527,-0.72883606,1.3929138,1
1734,9.068527,-0.7372284,1.4060822,1
1735,9.161896,-0.6833496,1.3198853000000002,1
1736,9.292389,-0.621109,1.2408752,1
1737,9.232529,-0.6294860999999999,1.1905975,1
1738,9.115219,-0.6007538,1.1822205,1
1739,9.088882,-0.621109,1.0852509,1
1740,9.165497,-0.63067627,1.0002594,1
1741,9.264847,-0.6989135999999999,0.9200591999999999,1
1742,9.264847,-0.79467773,0.9487915000000001,1
1743,9.218169999999999,-0.8497466999999999,0.9499816999999999,1
1744,9.145142,-0.8701019,1.0218048,1
1745,9.188232000000001,-0.8712921,0.9894867,1
1746,9.240905999999999,-0.8569336,1.0289917,1
1747,9.242111,-0.8641205,1.0397644,1
1748,9.127182000000001,-0.7731323,1.1882019,1
1749,9.092467999999998,-0.7731323,1.2743988000000002,1
1750,9.173874,-0.80784607,1.3126984,1
1751,9.164291,-0.8126373,1.2612305,1
1752,9.207397,-0.73483276,1.2456665,1
1753,9.213379,-0.7024994000000001,1.2277069,1
1754,9.182250999999999,-0.6797638,1.1678619,1
1755,9.197815,-0.66300964,1.1941986,1
1756,9.218169999999999,-0.70610046,1.1570892,1
1757,9.244507,-0.7013092,1.1379242,1
1758,9.230133,-0.6929320999999999,1.0565186000000002,1
1759,9.210983,-0.76356506,1.0577239999999999,1
1760,9.125992,-0.7264556999999999,1.0673065000000002,1
1761,9.108032000000001,-0.7312316999999999,1.073288,1
1762,9.163101,-0.78630066,1.1391296,1
1763,9.188232000000001,-0.8497466999999999,1.1714478000000002,1
1764,9.190628,-0.83418274,1.1858063,1
1765,9.175064,-0.8377838,1.1714478000000002,1
1766,9.181061,-0.82221985,1.1020203000000002,1
1767,9.189438,-0.8282013,1.097229,1
1768,9.218169999999999,-0.75398254,1.0505371000000001,1
1769,9.216965,-0.79707336,1.0625153,1
1770,9.152328500000001,-0.78990173,1.0948334,1
1771,9.157119999999999,-0.78271484,1.0912476,1
1772,9.206192,-0.7264556999999999,1.1044159,1
1773,9.188232000000001,-0.7551727,1.1283569,1
1774,9.194229,-0.7084961,1.1822205,1
1775,9.160706,-0.6318816999999999,1.2229156,1
1776,9.17627,-0.5827941999999999,1.2229156,1
1777,9.136764999999999,-0.5241394,1.1199646,1
1778,9.116408999999999,-0.48223877,1.1187744,1
1779,9.190628,-0.5337219,1.0708923000000001,1
1780,9.276825,-0.59716797,0.91526794,1
1781,9.244507,-0.6043396,0.94400024,1
1782,9.160706,-0.6797638,1.0397644,1
1783,9.165497,-0.78630066,1.1199646,1
1784,9.13916,-0.8641205,1.0768738000000002,1
1785,9.148727000000001,-0.92996216,1.1199646,1
1786,9.193024000000001,-0.94551086,1.1307526,1
1787,9.169083,-0.9562988000000001,1.1223602,1
1788,9.233734,-0.90122986,1.1295471000000001,1
1789,9.244507,-0.85572815,1.0625153,1
1790,9.190628,-0.7910919,1.0325775,1
1791,9.200211,-0.71806335,1.0852509,1
1792,9.15831,-0.66778564,1.152298,1
1793,9.129578,-0.57681274,1.1726378999999998,1
1794,9.109222,-0.51097107,1.1666565,1
1795,9.133179,-0.502594,1.1798248,1
1796,9.202606,-0.5780029000000001,1.1894073,1
1797,9.195419000000001,-0.67497253,1.1283569,1
1798,9.233734,-0.8605193999999999,1.0816649999999999,1
1799,9.240905999999999,-0.8772888000000001,1.073288,1
1800,9.206192,-0.90242004,1.0002594,1
1801,9.185837,-0.85453796,1.0062408,1
1802,9.075714,-0.8425598,1.0002594,1
1803,9.147537,-0.77552795,0.9990691999999999,1
1804,9.207397,-0.7803191999999999,0.9595642,1
1805,9.244507,-0.7384185999999999,0.9320221,1
1806,9.25528,-0.7264556999999999,0.9499816999999999,1
1807,9.225342,-0.74679565,1.0397644,1
1808,9.233734,-0.74679565,0.9966735999999999,1
1809,9.210983,-0.7444,1.0565186000000002,1
1810,9.133179,-0.7192688,1.0409698,1
1811,9.173874,-0.70729065,1.0852509,1
1812,9.25647,-0.7084961,1.0349731,1
1813,9.230133,-0.69532776,1.0289917,1
1814,9.183456,-0.6618042,1.0529327,1
1815,9.121201,-0.6582184,1.0577239999999999,1
1816,9.130783000000001,-0.6426544,1.0816649999999999,1
1817,9.224152,-0.6330719,1.0541382,1
1818,9.2313385,-0.63905334,1.0744781,1
1819,9.195419000000001,-0.63786316,1.0433502000000001,1
1820,9.175064,-0.6833496,1.0481415,1
1821,9.188232000000001,-0.73602295,1.018219,1
1822,9.170288000000001,-0.7803191999999999,1.0289917,1
1823,9.227737,-0.8066559,1.04216,1
1824,9.201400999999999,-0.7767334,1.0002594,1
1825,9.175064,-0.7444,1.0098419,1
1826,9.262466,-0.7480011,1.0852509,1
1827,9.279221000000001,-0.8186188,1.1499023000000002,1
1828,9.224152,-0.8497466999999999,1.2193298000000001,1
1829,9.181061,-0.84376526,1.2408752,1
1830,9.051772999999999,-0.8246155000000001,1.2516479999999999,1
1831,9.039795,-0.79467773,1.315094,1
1832,9.064941000000001,-0.77194214,1.2743988000000002,1
1833,9.167892,-0.7276459,1.2755889999999999,1
1834,9.191833500000001,-0.6474456999999999,1.3031311,1
1835,9.213379,-0.5528717,1.2444763,1
1836,9.17627,-0.5636444,1.2600403,1
1837,9.114014,-0.53012085,1.3258667,1
1838,9.075714,-0.5780029000000001,1.4192505,1
1839,9.075714,-0.6139220999999999,1.4276276,1
1840,9.082901,-0.625885,1.4395905,1
1841,9.125992,-0.6641998,1.3558044,1
1842,9.082901,-0.7216644,1.2157440000000002,1
1843,9.051772999999999,-0.7491913,1.2049713,1
1844,9.245697,-0.84017944,1.0756836,1
1845,9.476746,-0.78630066,1.0613098,1
1846,9.39534,-0.73483276,1.018219,1
1847,9.190628,-0.6510315,1.0589142,1
1848,9.048172000000001,-0.63905334,1.0996246,1
1849,8.995499,-0.7192688,1.1905975,1
1850,9.062546000000001,-0.76834106,1.1953888000000001,1
1851,9.207397,-0.74560547,1.1271514999999999,1
1852,9.299576,-0.68455505,1.0696868999999998,1
1853,9.293579,-0.6821594,1.0744781,1
1854,9.285202,-0.7276459,1.1032104,1
1855,9.159514999999999,-0.80307007,1.2480621,1
1856,9.090073,-0.8162384,1.1989746000000001,1
1857,9.1128235,-0.8353881999999999,1.1726378999999998,1
1858,9.135558999999999,-0.8305969000000001,1.2169341999999999,1
1859,9.127182000000001,-0.8533478000000001,1.2648163000000001,1
1860,9.092467999999998,-0.7695465,1.2899628,1
1861,9.109222,-0.75398254,1.3605957,1
1862,9.171478,-0.77194214,1.3797455,1
1863,9.193024000000001,-0.80426025,1.4060822,1
1864,9.202606,-0.79707336,1.3222809,1
1865,9.127182000000001,-0.81503296,1.2696075,1
1866,9.125992,-0.720459,1.0948334,1
1867,9.232529,-0.67378235,0.9404144,1
1868,9.205002,-0.739624,0.9882965,1
1869,9.118805,-0.7563781999999999,1.2827758999999999,1
1870,9.189438,-0.7587738,1.4443816999999999,1
1871,9.264847,-0.86531067,1.3677673000000001,1
1872,9.203796,-0.98143005,1.1714478000000002,1
1873,9.157119999999999,-1.020935,1.1558838,1
1874,9.216965,-1.0436859,1.236084,1
1875,9.185837,-0.90122986,1.3198853000000002,1
1876,9.100845,-0.8198242,1.418045,1
1877,9.036209,-0.7120819,1.5425415,1
1878,9.021835000000001,-0.56604004,1.5317688,1
1879,9.026627000000001,-0.542099,1.5760651,1
1880,9.148727000000001,-0.70370483,1.4515686,1
1881,9.232529,-0.92277527,1.4156494,1
1882,9.173874,-0.96707153,1.4803008999999998,1
1883,9.104446000000001,-1.0221252,1.4252319,1
1884,9.067337,-0.9898070999999999,1.236084,1
1885,9.041,-0.9191742,1.1439209,1
1886,9.141556,-0.90122986,1.0876465,1
1887,9.128387,-0.9550934000000001,1.0565186000000002,1
1888,9.17746,-0.9682617,1.0062408,1
1889,9.163101,-0.89045715,0.8877411000000001,1
1890,9.266052,-0.9371338,0.86857605,1
1891,9.2708435,-0.9215698,0.9918823,1
1892,9.278015,-0.93833923,1.0529327,1
1893,9.363022,-0.9251709000000001,1.0313873,1
1894,9.342667,-0.80784607,0.96554565,1
1895,9.248092999999999,-0.68933105,0.9703369000000001,1
1896,9.196625,-0.5325165,0.99786377,1
1897,9.2313385,-0.38647459999999995,0.9775238000000002,1
1898,9.23851,-0.32182312,1.0613098,1
1899,9.172684,-0.32781982,1.0744781,1
1900,9.131973,-0.31105042,1.1690521,1
1901,9.091277999999999,-0.25239563,1.2205353,1
1902,9.051772999999999,-0.22845459,1.2516479999999999,1
1903,9.149933,-0.24043274,1.2480621,1
1904,9.197815,-0.27275085,1.231308,1
1905,9.17627,-0.35295105,1.0720825,1
1906,9.178664999999999,-0.39964294,1.04216,1
1907,9.214569000000001,-0.48223877,1.0313873,1
1908,9.236130000000001,-0.6414489999999999,0.978714,1
1909,9.234924000000001,-0.71687317,0.99546814,1
1910,9.15831,-0.7767334,1.0505371000000001,1
1911,9.203796,-0.77194214,1.196579,1
1912,9.178664999999999,-0.6977234,1.1774292,1
1913,9.152328500000001,-0.6222991999999999,1.2301024999999999,1
1914,9.152328500000001,-0.6318816999999999,1.291153,1
1915,9.13916,-0.66659546,1.3617858999999999,1
1916,9.141556,-0.71806335,1.3545989999999999,1
1917,9.170288000000001,-0.7707366999999999,1.3378448,1
1918,9.15831,-0.8282013,1.3402405000000002,1
1919,9.133179,-0.799469,1.3689728,1
1920,9.185837,-0.7503966999999999,1.3318633999999998,1
1921,9.191833500000001,-0.7671509,1.270813,1
1922,9.220566,-0.80545044,1.2420806999999998,1
1923,9.234924000000001,-0.7922821,1.207367,1
1924,9.23851,-0.8485565,1.2145386,1
1925,9.166687,-0.75756836,1.2660216999999998,1
1926,9.134369,-0.78630066,1.3438263000000001,1
1927,9.142746,-0.7599640000000001,1.3821411,1
1928,9.155914,-0.7156677,1.3821411,1
1929,9.127182000000001,-0.67855835,1.3653716999999999,1
1930,9.15831,-0.63786316,1.3665771,1
1931,9.154724,-0.6222991999999999,1.409668,1
1932,9.080505,-0.7048949999999999,1.4276276,1
1933,9.096069,-0.7024994000000001,1.4790955,1
1934,9.0793,-0.70370483,1.4551544,1
1935,9.142746,-0.6833496,1.45755,1
1936,9.118805,-0.7048949999999999,1.4300232,1
1937,9.117614999999999,-0.660614,1.5054321000000002,1
1938,9.116408999999999,-0.6917267,1.473114,1
1939,9.133179,-0.6929320999999999,1.4743195,1
1940,9.159514999999999,-0.6701813,1.4850922,1
1941,9.154724,-0.69651794,1.5066376,1
1942,9.125992,-0.7527771,1.4683228000000002,1
1943,9.145142,-0.77552795,1.4803008999999998,1
1944,9.111618,-0.7527771,1.5305786,1
1945,9.117614999999999,-0.77433777,1.6012115,1
1946,9.175064,-0.7515869000000001,1.5533295,1
1947,9.135558999999999,-0.71806335,1.4814911,1
1948,9.064941000000001,-0.72406006,1.5688782,1
1949,9.043396000000001,-0.8066559,1.6347198,1
1950,9.076903999999999,-0.8581238000000001,1.6083832,1
1951,9.0733185,-0.81503296,1.5916290000000002,1
1952,9.108032000000001,-0.7922821,1.5329742,1
1953,9.123596000000001,-0.77552795,1.5892334,1
1954,9.103241,-0.73483276,1.5329742,1
1955,9.122391,-0.7875061,1.5198059,1
1956,9.133179,-0.8353881999999999,1.5138245000000001,1
1957,9.151123,-0.80784607,1.5245971999999999,1
1958,9.133179,-0.81144714,1.5557098,1
1959,9.104446000000001,-0.7527771,1.5988159,1
1960,9.080505,-0.76475525,1.6012115,1
1961,9.116408999999999,-0.76356506,1.5772705,1
1962,9.102051,-0.76594543,1.6012115,1
1963,8.985930999999999,-0.7480011,1.7592316000000003,1
1964,9.062546000000001,-0.799469,1.8011169999999999,1
1965,9.134369,-0.7671509,1.7041626,1
1966,9.206192,-0.7048949999999999,1.6263428,1
1967,9.129578,-0.7096863,1.5557098,1
1968,9.091277999999999,-0.7013092,1.552124,1
1969,9.068527,-0.70610046,1.5305786,1
1970,9.090073,-0.6833496,1.4934691999999998,1
1971,9.114014,-0.6318816999999999,1.4216461,1
1972,9.178664999999999,-0.6426544,1.4276276,1
1973,9.155914,-0.6582184,1.4072723,1
1974,9.109222,-0.68814087,1.4455871999999999,1
1975,9.124786,-0.7527771,1.4216461,1
1976,9.175064,-0.7695465,1.433609,1
1977,9.136764999999999,-0.7803191999999999,1.5090332,1
1978,9.085281,-0.74320984,1.6095886000000001,1
1979,9.163101,-0.7527771,1.6155701,1
1980,9.181061,-0.76475525,1.5150146,1
1981,9.100845,-0.7875061,1.5880432,1
1982,9.087677000000001,-0.8126373,1.6047973999999998,1
1983,9.096069,-0.7982788000000001,1.6000061,1
1984,9.094864,-0.76116943,1.6131744,1
1985,9.0793,-0.70370483,1.5413513,1
1986,9.092467999999998,-0.6797638,1.5976105,1
1987,9.111618,-0.720459,1.5186005,1
1988,9.172684,-0.76116943,1.4994507,1
1989,9.165497,-0.76475525,1.4982605,1
1990,9.13916,-0.7851104999999999,1.4838867,1
1991,9.109222,-0.7551727,1.4814911,1
1992,9.109222,-0.739624,1.5341643999999999,1
1993,9.122391,-0.7336273,1.5628966999999998,1
1994,9.115219,-0.7420044,1.5545197,1
1995,9.108032000000001,-0.76116943,1.5808563,1
1996,9.104446000000001,-0.7707366999999999,1.5844421,1
1997,9.1128235,-0.77552795,1.6335297,1
1998,9.123596000000001,-0.7695465,1.6383208999999999,1
1999,9.104446000000001,-0.8018645999999999,1.6047973999999998,1
2000,9.106842,-0.76594543,1.6000061,1
2001,9.069733,-0.74679565,1.6024017,1
2002,9.086487,-0.7372284,1.5844421,1
2003,9.104446000000001,-0.73602295,1.6203613000000001,1
2004,9.121201,-0.7491913,1.6095886000000001,1
2005,9.056564,-0.7156677,1.6251526,1
2006,9.087677000000001,-0.71328735,1.5892334,1
2007,9.068527,-0.71447754,1.6191559,1
2008,9.096069,-0.73602295,1.6000061,1
2009,9.127182000000001,-0.76834106,1.5820465,1
2010,9.14035,-0.77433777,1.5413513,1
2011,9.115219,-0.7551727,1.6000061,1
2012,9.133179,-0.77433777,1.6215515,1
2013,9.185837,-0.76594543,1.497055,1
2014,9.110428,-0.7815094,1.5497284,1
2015,9.068527,-0.77911377,1.622757,1
2016,9.082901,-0.82580566,1.6036072000000001,1
2017,9.046982,-0.77433777,1.6562805,1
2018,9.103241,-0.76356506,1.6275482,1
2019,9.118805,-0.73602295,1.5844421,1
2020,9.1128235,-0.7503966999999999,1.5569153,1
2021,9.128387,-0.72525024,1.5605011,1
2022,9.099655,-0.74679565,1.5425415,1
2023,9.131973,-0.7671509,1.5114288,1
2024,9.164291,-0.7731323,1.5377655000000001,1
2025,9.118805,-0.76475525,1.5377655000000001,1
2026,9.104446000000001,-0.7444,1.5736694,1
2027,9.103241,-0.76594543,1.5700836,1
2028,9.115219,-0.76475525,1.5892334,1
2029,9.1128235,-0.77194214,1.5976105,1
2030,9.114014,-0.7372284,1.6095886000000001,1
2031,9.085281,-0.7599640000000001,1.6742249,1
2032,9.096069,-0.7563781999999999,1.6323242,1
2033,9.106842,-0.7372284,1.5413513,1
2034,9.167892,-0.7336273,1.5233917,1
2035,9.161896,-0.7336273,1.5078278,1
2036,9.128387,-0.72406006,1.5018463,1
2037,9.130783000000001,-0.76116943,1.5030518,1
2038,9.129578,-0.7599640000000001,1.5473328000000002,1
2039,9.122391,-0.78990173,1.5222015,1
2040,9.103241,-0.7551727,1.4515686,1
2041,9.121201,-0.7779235999999999,1.5006561,1
2042,9.114014,-0.77194214,1.4862823,1
2043,9.142746,-0.78271484,1.4886780000000002,1
2044,9.0733185,-0.80784607,1.4898833999999999,1
2045,9.104446000000001,-0.7875061,1.5784607,1
2046,9.246902,-0.7815094,1.5617065,1
2047,9.227737,-0.77433777,1.4898833999999999,1
2048,9.103241,-0.7886963,1.5509338,1
2049,9.081696,-0.82341003,1.5581055,1
2050,9.076903999999999,-0.85572815,1.6036072000000001,1
2051,9.134369,-0.838974,1.5605011,1
2052,9.151123,-0.79467773,1.504242,1
2053,9.129578,-0.79348755,1.53656,1
2054,9.102051,-0.783905,1.504242,1
2055,9.1128235,-0.8102417,1.4922638000000001,1
2056,9.133179,-0.78990173,1.5102233999999999,1
2057,9.133179,-0.8461609,1.4886780000000002,1
2058,9.154724,-0.8138428000000001,1.4850922,1
2059,9.124786,-0.7910919,1.4934691999999998,1
2060,9.122391,-0.783905,1.53656,1
2061,9.108032000000001,-0.81144714,1.5652924,1
2062,9.116408999999999,-0.8174286000000001,1.5916290000000002,1
2063,9.106842,-0.83299255,1.5784607,1
2064,9.116408999999999,-0.8186188,1.5856476000000002,1
2065,9.155914,-0.8377838,1.5569153,1
2066,9.146347,-0.80784607,1.5509338,1
2067,9.136764999999999,-0.8425598,1.5114288,1
2068,9.134369,-0.7910919,1.5006561,1
2069,9.123596000000001,-0.799469,1.5269928,1
2070,9.123596000000001,-0.8186188,1.5916290000000002,1
2071,9.130783000000001,-0.77552795,1.5664978,1
2072,9.106842,-0.7922821,1.5425415,1
2073,9.108032000000001,-0.74320984,1.5533295,1
2074,9.081696,-0.7312316999999999,1.5628966999999998,1
2075,9.114014,-0.76475525,1.5557098,1
2076,9.154724,-0.8090515,1.504242,1
2077,9.145142,-0.82940674,1.4790955,1
2078,9.096069,-0.79467773,1.5329742,1
2079,9.1128235,-0.8102417,1.5724791999999999,1
2080,9.17746,-0.79467773,1.5820465,1
2081,9.17746,-0.8174286000000001,1.4635468,1
2082,9.076903999999999,-0.81503296,1.4982605,1
2083,9.080505,-0.838974,1.5233917,1
2084,9.092467999999998,-0.83657837,1.5126190000000002,1
2085,9.136764999999999,-0.80784607,1.4790955,1
2086,9.117614999999999,-0.76594543,1.5198059,1
2087,9.115219,-0.74679565,1.5245971999999999,1
2088,9.149933,-0.72406006,1.5066376,1
2089,9.134369,-0.7910919,1.4719238000000001,1
2090,9.116408999999999,-0.7767334,1.5269928,1
2091,9.048172000000001,-0.7563781999999999,1.5497284,1
2092,9.074508999999999,-0.7587738,1.5796661,1
2093,9.123596000000001,-0.7767334,1.5664978,1
2094,9.14035,-0.7671509,1.4563598999999998,1
2095,9.182250999999999,-0.7803191999999999,1.3725586,1
2096,9.214569000000001,-0.7886963,1.409668,1
2097,9.1128235,-0.7910919,1.4539642,1
2098,9.088882,-0.7803191999999999,1.5461426,1
2099,9.07811,-0.76475525,1.5209961,1
2100,9.118805,-0.7503966999999999,1.4252319,1
2101,9.141556,-0.7491913,1.3677673000000001,1
2102,9.14035,-0.78630066,1.4144591999999998,1
2103,9.0972595,-0.7300415,1.4611511000000001,1
2104,9.094864,-0.7216644,1.4527588,1
2105,9.15831,-0.7731323,1.5413513,1
2106,9.129578,-0.7910919,1.5497284,1
2107,9.105637,-0.79707336,1.5222015,1
2108,9.125992,-0.8018645999999999,1.4623413,1
2109,9.125992,-0.8473511,1.449173,1
2110,9.131973,-0.8641205,1.4156494,1
2111,9.134369,-0.8353881999999999,1.4910736,1
2112,9.125992,-0.8413695999999999,1.5114288,1
2113,9.157119999999999,-0.82341003,1.552124,1
2114,9.17627,-0.8317870999999999,1.3809357,1
2115,9.178664999999999,-0.82341003,1.3593903,1
2116,9.116408999999999,-0.838974,1.4743195,1
2117,9.030228,-0.88446045,1.5269928,1
2118,9.008666999999999,-0.8353881999999999,1.5377655000000001,1
2119,9.12001,-0.81144714,1.5377655000000001,1
2120,9.152328500000001,-0.7372284,1.4934691999999998,1
2121,9.179855,-0.7515869000000001,1.5114288,1
2122,9.093674,-0.83418274,1.4659271,1
2123,9.091277999999999,-0.85572815,1.4898833999999999,1
2124,9.153519000000001,-0.8677063,1.4874878,1
2125,9.172684,-0.8533478000000001,1.4216461,1
2126,9.142746,-0.85453796,1.4563598999999998,1
2127,9.096069,-0.7875061,1.4348145,1
2128,9.088882,-0.838974,1.4826965,1
2129,9.091277999999999,-0.8701019,1.4384003,1
2130,9.080505,-0.88327026,1.497055,1
2131,9.164291,-0.838974,1.4790955,1
2132,9.165497,-0.82580566,1.4994507,1
2133,9.14035,-0.8353881999999999,1.4707184,1
2134,9.118805,-0.85453796,1.4767151,1
2135,9.121201,-0.8174286000000001,1.4874878,1
2136,9.09845,-0.8473511,1.4934691999999998,1
2137,9.143951,-0.85214233,1.5090332,1
2138,9.131973,-0.87249756,1.5102233999999999,1
2139,9.114014,-0.8581238000000001,1.4982605,1
2140,9.102051,-0.8305969000000001,1.5018463,1
2141,9.130783000000001,-0.86172485,1.504242,1
2142,9.13916,-0.8425598,1.4551544,1
2143,9.145142,-0.82940674,1.5006561,1
2144,9.123596000000001,-0.8413695999999999,1.4360046,1
2145,9.154724,-0.8461609,1.4419861,1
2146,9.100845,-0.8425598,1.4719238000000001,1
2147,9.094864,-0.8485565,1.4826965,1
2148,9.165497,-0.838974,1.5353698999999998,1
2149,9.182250999999999,-0.84376526,1.3773499,1
2150,9.145142,-0.8282013,1.4120636,1
2151,9.100845,-0.84017944,1.4862823,1
2152,9.045776,-0.8677063,1.5724791999999999,1
2153,9.067337,-0.88446045,1.5497284,1
2154,9.114014,-0.8712921,1.5724791999999999,1
2155,9.136764999999999,-0.8605193999999999,1.607193,1
2156,9.090073,-0.9000244000000001,1.5928345,1
2157,9.092467999999998,-0.8712921,1.543747,1
2158,9.145142,-0.8246155000000001,1.4790955,1
2159,9.147537,-0.8138428000000001,1.4060822,1
2160,9.171478,-0.80307007,1.3833313,1
2161,9.136764999999999,-0.7587738,1.4108733999999998,1
2162,9.160706,-0.71328735,1.4503784,1
2163,9.142746,-0.67855835,1.3988953000000002,1
2164,9.088882,-0.64863586,1.370163,1
2165,9.103241,-0.6127166999999999,1.4898833999999999,1
2166,9.124786,-0.6366729999999999,1.5138245000000001,1
2167,9.218169999999999,-0.7216644,1.5581055,1
2168,9.227737,-0.7480011,1.473114,1
2169,9.1128235,-0.85453796,1.5652924,1
2170,9.017059,-0.88327026,1.5736694,1
2171,9.201400999999999,-0.74320984,1.504242,1
2172,9.161896,-0.7276459,1.45755,1
2173,9.066132000000001,-1.0005798000000001,1.4228363000000002,1
2174,9.096069,-1.1657867,1.5245971999999999,1
2175,9.145142,-1.1179047,1.5341643999999999,1
2176,9.172684,-1.0376892,1.5078278,1
2177,9.076903999999999,-1.0029755,1.4886780000000002,1
2178,9.103241,-0.9503021,1.5233917,1
2179,9.099655,-0.97184753,1.5593108999999998,1
2180,9.145142,-0.95988464,1.5545197,1
2181,9.121201,-0.88087463,1.5557098,1
2182,9.103241,-0.8246155000000001,1.5748749,1
2183,9.116408999999999,-0.78630066,1.5784607,1
2184,9.128387,-0.8760834000000001,1.5808563,1
2185,9.172684,-0.9646759,1.5688782,1
2186,9.15831,-0.9622803,1.528183,1
2187,9.0793,-0.9550934000000001,1.5856476000000002,1
2188,9.030228,-1.0161438,1.5916290000000002,1
2189,9.06015,-1.0616302,1.5784607,1
2190,9.105637,-1.0484619000000002,1.5988159,1
2191,9.093674,-0.94192505,1.5628966999999998,1
2192,9.1128235,-0.91319275,1.5820465,1
2193,9.127182000000001,-0.8880615,1.5329742,1
2194,9.099655,-0.917984,1.5162201000000002,1
2195,9.103241,-0.9263610999999999,1.5329742,1
2196,9.151123,-0.92277527,1.5138245000000001,1
2197,9.081696,-0.93833923,1.5641022,1
2198,9.036209,-0.9395294,1.6215515,1
2199,9.084091,-0.9107970999999999,1.6897887999999999,1
2200,9.081696,-0.89523315,1.6897887999999999,1
2201,9.09845,-0.9395294,1.6670532,1
2202,9.09845,-0.92277527,1.6658477999999999,1
2203,9.070922999999999,-0.9251709000000001,1.6239471,1
2204,9.074508999999999,-0.95988464,1.6419066999999998,1
2205,9.052963,-0.94192505,1.6287383999999998,1
2206,9.102051,-0.9215698,1.6359253,1
2207,9.090073,-0.9658661000000001,1.6347198,1
2208,9.136764999999999,-0.9359436,1.5509338,1
2209,9.091277999999999,-0.9359436,1.5341643999999999,1
2210,9.087677000000001,-0.97424316,1.53656,1
2211,9.117614999999999,-0.9622803,1.5413513,1
2212,9.13916,-0.92396545,1.5736694,1
2213,9.143951,-0.8892517,1.5569153,1
2214,9.155914,-0.85095215,1.5628966999999998,1
2215,9.084091,-0.8688965,1.5688782,1
2216,9.080505,-0.88087463,1.5796661,1
2217,9.091277999999999,-0.89404297,1.5736694,1
2218,9.125992,-0.9000244000000001,1.5688782,1
2219,9.128387,-0.81144714,1.5425415,1
2220,9.118805,-0.8353881999999999,1.6323242,1
2221,9.181061,-0.8246155000000001,1.6586609,1
2222,9.159514999999999,-0.82341003,1.5976105,1
2223,9.09845,-0.83657837,1.6000061,1
2224,9.086487,-0.8593291999999999,1.5269928,1
2225,9.052963,-0.8317870999999999,1.4503784,1
2226,9.122391,-0.8162384,1.4036865,1
2227,9.167892,-0.7779235999999999,1.4264374,1
2228,9.130783000000001,-0.6989135999999999,1.4671326,1
2229,9.105637,-0.6522217,1.4515686,1
2230,9.103241,-0.68933105,1.4156494,1
2231,9.13916,-0.75756836,1.3749542,1
2232,9.203796,-0.77194214,1.4084778,1
2233,9.191833500000001,-0.80545044,1.4539642,1
2234,9.157119999999999,-0.84376526,1.4695281999999998,1
2235,9.105637,-0.82580566,1.4779053,1
2236,9.075714,-0.8317870999999999,1.528183,1
2237,9.133179,-0.8198242,1.5413513,1
2238,9.148727000000001,-0.8317870999999999,1.5856476000000002,1
2239,9.145142,-0.82940674,1.5377655000000001,1
2240,9.108032000000001,-0.8018645999999999,1.5413513,1
2241,9.130783000000001,-0.7408142,1.543747,1
2242,9.0972595,-0.79467773,1.5569153,1
2243,9.104446000000001,-0.7480011,1.4862823,1
2244,9.106842,-0.79707336,1.5054321000000002,1
2245,9.12001,-0.8162384,1.4934691999999998,1
2246,9.106842,-0.8090515,1.5114288,1
2247,9.117614999999999,-0.8138428000000001,1.5305786,1
2248,9.076903999999999,-0.8246155000000001,1.543747,1
2249,9.124786,-0.8270110999999999,1.5593108999999998,1
2250,9.130783000000001,-0.8533478000000001,1.5557098,1
2251,9.122391,-0.8569336,1.5844421,1
2252,9.114014,-0.8976288,1.5461426,1
2253,9.123596000000001,-0.838974,1.5808563,1
2254,9.110428,-0.8305969000000001,1.6323242,1
2255,9.036209,-0.84495544,1.6921843999999997,1
2256,9.123596000000001,-0.80545044,1.6598663,1
2257,9.142746,-0.7910919,1.5162201000000002,1
2258,9.122391,-0.7875061,1.5868378,1
2259,9.068527,-0.8246155000000001,1.5844421,1
2260,9.042191,-0.8665161,1.6407166000000002,1
2261,9.103241,-0.8701019,1.622757,1
2262,9.099655,-0.8126373,1.6598663,1
2263,9.105637,-0.7851104999999999,1.6287383999999998,1
2264,9.062546000000001,-0.7527771,1.6131744,1
2265,9.091277999999999,-0.76475525,1.5928345,1
2266,9.1128235,-0.79348755,1.6359253,1
2267,9.110428,-0.80307007,1.607193,1
2268,9.137955,-0.8485565,1.5976105,1
2269,9.122391,-0.85453796,1.6167755,1
2270,9.075714,-0.8186188,1.5964203000000001,1
2271,9.0793,-0.838974,1.6407166000000002,1
2272,9.087677000000001,-0.88327026,1.6610565,1
2273,9.096069,-0.8760834000000001,1.6658477999999999,1
2274,9.105637,-0.86291504,1.6838074,1
2275,9.123596000000001,-0.83418274,1.6203613000000001,1
2276,9.102051,-0.8473511,1.5760651,1
2277,9.104446000000001,-0.8198242,1.6024017,1
2278,9.093674,-0.83418274,1.6239471,1
2279,9.094864,-0.85572815,1.5772705,1
2280,9.118805,-0.85095215,1.5988159,1
2281,9.1128235,-0.8712921,1.6000061,1
2282,9.082901,-0.8353881999999999,1.6203613000000001,1
2283,9.106842,-0.8748931999999999,1.5964203000000001,1
2284,9.114014,-0.8605193999999999,1.5868378,1
2285,9.086487,-0.89523315,1.5964203000000001,1
2286,9.092467999999998,-0.8497466999999999,1.6024017,1
2287,9.091277999999999,-0.85214233,1.6179656999999998,1
2288,9.125992,-0.8688965,1.6383208999999999,1
2289,9.134369,-0.8317870999999999,1.6251526,1
2290,9.106842,-0.8210144,1.6119843,1
2291,9.100845,-0.7922821,1.6299438,1
2292,9.170288000000001,-0.82221985,1.631134,1
2293,9.129578,-0.80545044,1.5198059,1
2294,9.086487,-0.7779235999999999,1.583252,1
2295,9.06134,-0.8569336,1.6119843,1
2296,9.074508999999999,-0.8688965,1.6239471,1
2297,9.12001,-0.83657837,1.5760651,1
2298,9.0972595,-0.8270110999999999,1.6215515,1
2299,9.076903999999999,-0.8198242,1.6095886000000001,1
2300,9.110428,-0.8162384,1.5497284,1
2301,9.137955,-0.8712921,1.5808563,1
2302,9.118805,-0.87368774,1.5820465,1
2303,9.118805,-0.88087463,1.5664978,1
2304,9.129578,-0.8868560999999999,1.5473328000000002,1
2305,9.105637,-0.9036255,1.5820465,1
2306,9.117614999999999,-0.8569336,1.6287383999999998,1
2307,9.081696,-0.8593291999999999,1.6203613000000001,1
2308,9.104446000000001,-0.8712921,1.6849976000000002,1
2309,9.121201,-0.85453796,1.686203,1
2310,9.06015,-0.87968445,1.6586609,1
2311,9.044586,-0.8701019,1.5664978,1
2312,9.048172000000001,-0.8976288,1.5449371,1
2313,9.058945,-0.87968445,1.5485381999999999,1
2314,9.136764999999999,-0.84017944,1.6251526,1
2315,9.199005,-0.7851104999999999,1.4551544,1
2316,9.191833500000001,-0.77194214,1.3845367,1
2317,9.15831,-0.82341003,1.418045,1
2318,9.121201,-0.8425598,1.5569153,1
2319,9.086487,-0.86172485,1.4910736,1
2320,9.124786,-0.8270110999999999,1.4539642,1
2321,9.147537,-0.8485565,1.4671326,1
2322,9.155914,-0.79467773,1.4503784,1
2323,9.222961,-0.86172485,1.3761444,1
2324,9.164291,-0.88087463,1.4551544,1
2325,9.127182000000001,-0.8892517,1.5078278,1
2326,9.070922999999999,-0.85214233,1.5772705,1
2327,9.205002,-0.8784790000000001,1.5617065,1
2328,9.125992,-0.8353881999999999,1.5952148000000002,1
2329,9.024231,-0.8712921,1.5892334,1
2330,9.052963,-0.8569336,1.6167755,1
2331,9.07811,-0.8688965,1.6059875,1
2332,9.118805,-0.8461609,1.5449371,1
2333,9.13916,-0.80426025,1.53656,1
2334,9.115219,-0.7803191999999999,1.4982605,1
2335,9.076903999999999,-0.8138428000000001,1.4671326,1
2336,9.103241,-0.7886963,1.4767151,1
2337,9.145142,-0.87968445,1.5006561,1
2338,9.141556,-0.86172485,1.5162201000000002,1
2339,9.165497,-0.8712921,1.4743195,1
2340,9.110428,-0.838974,1.5198059,1
2341,9.084091,-0.88327026,1.5305786,1
2342,9.108032000000001,-0.87249756,1.5461426,1
2343,9.096069,-0.8533478000000001,1.5533295,1
2344,9.093674,-0.88446045,1.5114288,1
2345,9.096069,-0.83657837,1.5425415,1
2346,9.127182000000001,-0.90122986,1.5209961,1
2347,9.142746,-0.82940674,1.528183,1
2348,9.102051,-0.8138428000000001,1.5413513,1
2349,9.108032000000001,-0.84017944,1.5844421,1
2350,9.114014,-0.88087463,1.497055,1
2351,9.133179,-0.8569336,1.4671326,1
2352,9.087677000000001,-0.8569336,1.5269928,1
2353,9.074508999999999,-0.83418274,1.5664978,1
2354,9.166687,-0.82940674,1.5353698999999998,1
2355,9.136764999999999,-0.85214233,1.5209961,1
2356,9.091277999999999,-0.8413695999999999,1.5892334,1
2357,9.118805,-0.8282013,1.5844421,1
2358,9.06015,-0.8413695999999999,1.5964203000000001,1
2359,9.092467999999998,-0.82940674,1.622757,1
2360,9.181061,-0.86172485,1.6490936,1
2361,9.160706,-0.79348755,1.4946594,1
2362,9.136764999999999,-0.8377838,1.5772705,1
2363,9.081696,-0.9000244000000001,1.6383208999999999,1
2364,9.036209,-0.92037964,1.662262,1
2365,9.069733,-0.87968445,1.6574706999999997,1
2366,9.152328500000001,-0.8353881999999999,1.6095886000000001,1
2367,9.136764999999999,-0.80426025,1.5557098,1
2368,9.096069,-0.7767334,1.5317688,1
2369,9.076903999999999,-0.80067444,1.5485381999999999,1
2370,9.093674,-0.7982788000000001,1.5150146,1
2371,9.093674,-0.7767334,1.4982605,1
2372,9.109222,-0.739624,1.5329742,1
2373,9.145142,-0.7515869000000001,1.5389556999999998,1
2374,9.155914,-0.7599640000000001,1.5305786,1
2375,9.121201,-0.7803191999999999,1.5880432,1
2376,9.052963,-0.8102417,1.6502838,1
2377,9.050568,-0.8210144,1.6945801,1
2378,9.094864,-0.84376526,1.6646576000000002,1
2379,9.123596000000001,-0.8425598,1.6167755,1
2380,9.111618,-0.8270110999999999,1.6047973999999998,1
2381,9.099655,-0.8138428000000001,1.5952148000000002,1
2382,9.09845,-0.80545044,1.6526793999999998,1
2383,9.088882,-0.80067444,1.646698,1
2384,9.094864,-0.77433777,1.6658477999999999,1
2385,9.085281,-0.77194214,1.6730346999999999,1
2386,9.115219,-0.7695465,1.6478881999999997,1
2387,9.1128235,-0.783905,1.6299438,1
2388,9.099655,-0.7875061,1.6155701,1
2389,9.108032000000001,-0.76356506,1.6419066999999998,1
2390,9.117614999999999,-0.7851104999999999,1.6670532,1
2391,9.091277999999999,-0.81144714,1.6215515,1
2392,9.066132000000001,-0.783905,1.6215515,1
2393,9.063736,-0.7875061,1.7017669999999998,1
2394,9.169083,-0.7922821,1.6838074,1
2395,9.135558999999999,-0.76116943,1.5581055,1
2396,9.082901,-0.783905,1.6251526,1
2397,9.051772999999999,-0.78990173,1.6155701,1
2398,9.049377,-0.8305969000000001,1.7089386000000002,1
2399,9.072113,-0.8593291999999999,1.7005615,1
2400,9.080505,-0.838974,1.6766205,1
2401,9.129578,-0.80426025,1.6419066999999998,1
2402,9.0972595,-0.76356506,1.6766205,1
2403,9.075714,-0.7551727,1.6598663,1
2404,9.088882,-0.8162384,1.6359253,1
2405,9.155914,-0.83299255,1.6179656999999998,1
2406,9.117614999999999,-0.82341003,1.6083832,1
2407,9.051772999999999,-0.8162384,1.6646576000000002,1
2408,9.075714,-0.82341003,1.6802216,1
2409,9.096069,-0.84495544,1.6838074,1
2410,9.1128235,-0.8461609,1.7077484,1
2411,9.081696,-0.8270110999999999,1.6849976000000002,1
2412,9.0793,-0.8186188,1.6826019,1
2413,9.099655,-0.8473511,1.6335297,1
2414,9.124786,-0.84017944,1.6502838,1
2415,9.123596000000001,-0.82341003,1.6514893,1
2416,9.087677000000001,-0.7803191999999999,1.6646576000000002,1
2417,9.082901,-0.8018645999999999,1.6431122,1
2418,9.080505,-0.77911377,1.6478881999999997,1
2419,9.048172000000001,-0.7851104999999999,1.6347198,1
2420,9.123596000000001,-0.75756836,1.5952148000000002,1
2421,9.108032000000001,-0.7910919,1.5988159,1
2422,9.131973,-0.80784607,1.5880432,1
2423,9.092467999999998,-0.81503296,1.6826019,1
2424,9.108032000000001,-0.8162384,1.622757,1
2425,9.0972595,-0.80545044,1.6802216,1
2426,9.072113,-0.83299255,1.6550751,1
2427,9.084091,-0.8138428000000001,1.7424621999999999,1
2428,9.154724,-0.8090515,1.6838074,1
2429,9.13916,-0.80784607,1.6239471,1
2430,9.068527,-0.8569336,1.6981659,1
2431,9.062546000000001,-0.90122986,1.7831726000000003,1
2432,9.00029,-0.90960693,1.8023223999999998,1
2433,8.946425999999999,-0.9443207,1.8298491999999997,1
2434,9.050568,-0.89164734,1.8945006999999998,1
2435,9.131973,-0.90960693,1.8059081999999997,1
2436,9.194229,-0.94192505,1.6478881999999997,1
2437,9.230133,-0.8928528,1.3773499,1
2438,9.145142,-0.86531067,1.2732086,1
2439,8.994308,-0.7515869000000001,1.2648163000000001,1
2440,9.001495,-0.6127166999999999,1.4312133999999999,1
2441,9.09845,-0.5708313,1.3953094,1
2442,9.239716,-0.65582275,1.2420806999999998,1
2443,9.33429,-0.67736816,1.1415253,1
2444,9.382172,-0.59835815,1.1091919,1
2445,9.29837,-0.53730774,1.2013702,1
2446,9.196625,-0.6187134,1.2241211,1
2447,9.102051,-0.6330719,1.3558044,1
2448,9.051772999999999,-0.61750793,1.4826965,1
2449,9.00029,-0.6414489999999999,1.5006561,1
2450,9.041,-0.62350464,1.6203613000000001,1
2451,9.080505,-0.5851898,1.7687988000000001,1
2452,9.105637,-0.47146606,1.7915497,1
2453,9.130783000000001,-0.39245605,1.7328949,1
2454,9.094864,-0.39964294,1.7268982,1
2455,9.063736,-0.44273376,1.7005615,1
2456,9.06134,-0.4954071,1.7687988000000001,1
2457,8.994308,-0.52653503,1.8238678,1
2458,8.989517,-0.6414489999999999,1.8454131999999999,1
2459,9.035003999999999,-0.7515869000000001,1.7879486,1
2460,9.146347,-0.91319275,1.7616119,1
2461,9.3103485,-1.0101624,1.5796661,1
2462,9.286407,-1.0412903,1.4898833999999999,1
2463,9.110428,-1.0532532,1.5425415,1
2464,8.98114,-1.0652313,1.6359253,1
2465,8.969161999999999,-1.0664215,1.6371155000000002,1
2466,9.025436000000001,-1.1035309,1.6383208999999999,1
2467,9.0793,-1.0831909,1.6885986000000002,1
2468,9.163101,-1.0867767,1.6359253,1
2469,9.171478,-1.0293120999999998,1.5892334,1
2470,9.171478,-1.0580444,1.5222015,1
2471,9.155914,-1.0771941999999999,1.5856476000000002,1
2472,9.148727000000001,-1.1095276,1.6574706999999997,1
2473,9.09845,-1.1538086,1.6730346999999999,1
2474,9.102051,-1.1993103,1.7041626,1
2475,9.062546000000001,-1.249588,1.7544403000000002,1
2476,9.044586,-1.2076874,1.8011169999999999,1
2477,9.046982,-1.0855713,1.796341,1
2478,9.068527,-0.9251709000000001,1.7831726000000003,1
2479,9.108032000000001,-0.85214233,1.7508392,1
2480,9.096069,-0.8413695999999999,1.6155701,1
2481,9.074508999999999,-0.88327026,1.5868378,1
2482,9.056564,-0.9586792,1.5700836,1
2483,9.064941000000001,-0.9562988000000001,1.5305786,1
2484,9.088882,-0.99220276,1.6095886000000001,1
2485,9.159514999999999,-0.9467163000000001,1.6239471,1
2486,9.118805,-0.90960693,1.6095886000000001,1
2487,9.085281,-0.9754485999999999,1.543747,1
2488,9.146347,-0.93473816,1.4527588,1
2489,9.129578,-0.88446045,1.5126190000000002,1
2490,9.07811,-0.9072113000000002,1.5209961,1
2491,9.096069,-0.90122986,1.5569153,1
2492,9.109222,-1.0173492,1.5976105,1
2493,9.193024000000001,-1.052063,1.5054321000000002,1
2494,9.147537,-1.0065765,1.3917084,1
2495,9.183456,-1.1538086,1.6047973999999998,1
2496,9.152328500000001,-0.93115234,1.3785399999999999,1
2497,9.001495,-1.1933136,1.943573,1
2498,8.886566,-1.3453522,1.9806824,1
2499,9.011063,-0.42358398,1.5904388,1
2500,9.245697,0.41079712,1.5222015,1
2501,9.202606,-0.5636444,1.5233917,1
2502,9.278015,-1.9091797,1.4599457,1
2503,9.232529,-2.1258545,1.4898833999999999,1
2504,8.899734500000001,-1.6482086,1.686203,1
2505,8.82312,-1.5847626,1.9459686,1
2506,8.933258,-1.7284241000000002,1.9519501,1
2507,9.099655,-1.8409423999999999,1.7029572,1
2508,9.199005,-1.1693726,1.5988159,1
2509,9.218169999999999,-0.39245605,1.5233917,1
2510,9.17746,0.03730774,1.5796661,1
2511,9.179855,-0.18655396,1.7101439999999999,1
2512,9.06015,-0.6618042,1.6981659,1
2513,9.003891000000001,-0.8868560999999999,1.6191559,1
2514,9.029022,-0.8976288,1.6873932,1
2515,9.001495,-0.82940674,1.7113342,1
2516,8.987122,-1.052063,1.8729552999999999,1
2517,9.044586,-1.31781,1.8430176,1
2518,9.100845,-1.1059265,1.7472534,1
2519,9.082901,-0.8880615,1.796341,1
2520,9.064941000000001,-0.8425598,1.9064636000000001,1
2521,9.044586,-0.8533478000000001,1.8908996999999999,1
2522,9.008666999999999,-0.9539032,1.8693542,1
2523,9.007477,-1.0939636000000001,1.8573914,1
2524,9.093674,-1.1047363000000001,1.8214721999999999,1
2525,9.209793,-1.107132,1.7939453,1
2526,9.184647,-1.0771941999999999,1.6838074,1
2527,9.038605,-1.0544586,1.7113342,1
2528,8.973953,-1.0592499,1.7951355,1
2529,8.989517,-1.0221252,1.7831726000000003,1
2530,9.024231,-1.0065765,1.8071136000000003,1
2531,9.130783000000001,-1.0771941999999999,1.7388762999999998,1
2532,9.117614999999999,-1.0939636000000001,1.7436676,1
2533,9.064941000000001,-1.0329131999999999,1.7400665000000002,1
2534,9.00029,-0.96946716,1.8023223999999998,1
2535,9.002686,-0.89404297,1.8813324,1
2536,9.063736,-0.87968445,1.8585814999999999,1
2537,9.09845,-0.89045715,1.8358459999999999,1
2538,9.0577545,-0.8964386000000001,1.8406220000000002,1
2539,9.039795,-0.9479065000000001,1.8573914,1
2540,9.06015,-1.0305176,1.785553,1
2541,9.014664,-1.1083221,1.7532348999999998,1
2542,9.086487,-1.0616302,1.7520447000000001,1
2543,9.046982,-1.0197449,1.8214721999999999,1
2544,9.054169,-0.9395294,1.796341,1
2545,9.037399,-0.917984,1.796341,1
2546,9.044586,-0.9359436,1.7975311,1
2547,9.062546000000001,-0.9574889999999999,1.7891540000000001,1
2548,9.110428,-0.9610748,1.7735901,1
2549,9.121201,-0.98861694,1.7819672,1
2550,9.054169,-0.9682617,1.8095093,1
2551,9.045776,-0.9431305,1.8406220000000002,1
2552,9.020645,-0.94192505,1.8238678,1
2553,9.062546000000001,-0.98023987,1.8214721999999999,1
2554,9.080505,-0.9981841999999999,1.7759857,1
2555,9.094864,-1.0221252,1.7592316000000003,1
2556,9.054169,-1.0221252,1.7843628,1
2557,9.055359,-0.9874115,1.8418273999999997,1
2558,9.124786,-0.9766388,1.8585814999999999,1
2559,9.127182000000001,-0.9646759,1.7328949,1
2560,9.027832,-1.0221252,1.7352753,1
2561,8.995499,-0.996994,1.7831726000000003,1
2562,9.06134,-1.0149536,1.7879486,1
2563,9.069733,-0.9838256999999999,1.7927398999999997,1
2564,9.038605,-0.94551086,1.7616119,1
2565,9.064941000000001,-0.90960693,1.7939453,1
2566,9.076903999999999,-0.88327026,1.7316895,1
2567,9.085281,-0.93833923,1.7316895,1
2568,9.0972595,-0.9754485999999999,1.7915497,1
2569,9.092467999999998,-0.9945984,1.8190765,1
2570,9.058945,-0.98861694,1.8214721999999999,1
2571,9.003891000000001,-0.9610748,1.8813324,1
2572,8.955994,-0.93115234,1.8932953000000001,1
2573,9.0182495,-0.93115234,1.8418273999999997,1
2574,9.032608,-0.996994,1.8190765,1
2575,9.062546000000001,-0.9395294,1.8083038,1
2576,9.062546000000001,-0.88446045,1.8537903000000002,1
2577,9.076903999999999,-0.99220276,1.8394317999999998,1
2578,9.0733185,-1.028122,1.7711945,1
2579,9.043396000000001,-1.0831909,1.7388762999999998,1
2580,9.058945,-1.0460815,1.7292938000000002,1
2581,9.086487,-1.0137482,1.7304993000000002,1
2582,9.069733,-0.9431305,1.7292938000000002,1
2583,9.090073,-0.96347046,1.8394317999999998,1
2584,9.146347,-0.9479065000000001,1.8035126,1
2585,9.133179,-0.98143005,1.7137299,1
2586,9.082901,-1.0077667,1.7460631999999998,1
2587,9.072113,-1.0113524999999999,1.7161255000000002,1
2588,9.038605,-0.9934082000000001,1.7687988000000001,1
2589,9.009872,-0.9730530000000001,1.8430176,1
2590,9.006287,-0.8784790000000001,1.9292145,1
2591,9.091277999999999,-0.86291504,1.8897095000000002,1
2592,9.106842,-0.77911377,1.8645630000000002,1
2593,9.021835000000001,-0.7815094,1.8585814999999999,1
2594,8.951217999999999,-0.82940674,1.8777313000000002,1
2595,8.951217999999999,-0.9191742,1.9244232,1
2596,9.003891000000001,-0.94073486,1.9735107,1
2597,9.069733,-0.9371338,1.9172363000000001,1
2598,9.121201,-0.88446045,1.8573914,1
2599,9.090073,-0.8665161,1.7664031999999998,1
2600,9.001495,-0.8473511,1.6838074,1
2601,8.978744500000001,-0.80784607,1.7340851000000002,1
2602,9.046982,-0.7910919,1.7448578000000001,1
2603,9.032608,-0.90122986,1.7053528000000002,1
2604,9.017059,-1.0137482,1.6514893,1
2605,9.06015,-1.0329131999999999,1.5784607,1
2606,9.115219,-1.0508575,1.5856476000000002,1
2607,9.182250999999999,-0.9945984,1.5593108999999998,1
2608,9.133179,-0.84495544,1.7041626,1
2609,9.076903999999999,-0.70610046,1.8526001,1
2610,9.14035,-0.67736816,1.8932953000000001,1
2611,9.203796,-0.7551727,1.7580261000000001,1
2612,9.166687,-0.8186188,1.6574706999999997,1
2613,9.114014,-0.9251709000000001,1.7161255000000002,1
2614,9.137955,-1.1669768999999999,1.7711945,1
2615,9.122391,-1.2244415000000002,1.6802216,1
2616,9.0793,-1.0736084,1.6083832,1
2617,9.064941000000001,-0.9072113000000002,1.5317688,1
2618,9.142746,-0.8066559,1.4001006999999999,1
2619,9.21936,-0.77911377,1.4144591999999998,1
2620,9.222961,-0.7623595999999999,1.4551544,1
2621,9.210983,-0.82341003,1.5078278,1
2622,9.109222,-0.7587738,1.5066376,1
2623,9.092467999999998,-0.7084961,1.5233917,1
2624,9.108032000000001,-0.5899810999999999,1.5545197,1
2625,9.084091,-0.5217438,1.607193,1
2626,9.058945,-0.54089355,1.6766205,1
2627,9.076903999999999,-0.5959625,1.7053528000000002,1
2628,9.06015,-0.6438446,1.7628173999999999,1
2629,9.064941000000001,-0.7024994000000001,1.7245026,1
2630,9.032608,-0.6701813,1.7532348999999998,1
2631,9.001495,-0.6426544,1.8059081999999997,1
2632,9.064941000000001,-0.6653899999999999,1.7735901,1
2633,9.142746,-0.63905334,1.7448578000000001,1
2634,9.14035,-0.67378235,1.7532348999999998,1
2635,9.134369,-0.6989135999999999,1.7281036,1
2636,9.023041000000001,-0.72525024,1.6670532,1
2637,8.916504,-0.76475525,1.7173308999999997,1
2638,9.011063,-0.8162384,1.7472534,1
2639,9.104446000000001,-0.85214233,1.6921843999999997,1
2640,9.099655,-0.82940674,1.6778258999999998,1
2641,9.142746,-0.83418274,1.7233124,1
2642,9.147537,-0.90960693,1.8478088,1
2643,9.041,-0.91319275,1.8908996999999999,1
2644,8.976349,-0.9215698,1.8897095000000002,1
2645,8.997894,-0.8688965,1.9423828,1
2646,9.069733,-0.8353881999999999,1.8573914,1
2647,9.068527,-0.89045715,1.9447784,1
2648,9.094864,-0.88327026,1.9531555,1
2649,9.103241,-0.8665161,1.8669586,1
2650,9.087677000000001,-0.7563781999999999,1.8597869999999999,1
2651,9.055359,-0.7001189999999999,1.844223,1
2652,9.042191,-0.7695465,1.7783813000000002,1
2653,9.092467999999998,-0.79467773,1.7711945,1
2654,9.122391,-0.8413695999999999,1.6945801,1
2655,9.146347,-0.8748931999999999,1.6203613000000001,1
2656,9.165497,-0.84376526,1.6323242,1
2657,9.045776,-0.7707366999999999,1.7783813000000002,1
2658,9.038605,-0.65940857,1.7795715,1
2659,9.12001,-0.64863586,1.7005615,1
2660,9.085281,-0.6941223000000001,1.7304993000000002,1
2661,8.960785000000001,-0.74560547,1.8789368000000002,1
2662,8.975159,-0.72883606,1.919632,1
2663,9.032608,-0.6989135999999999,1.9866791000000001,1
2664,9.082901,-0.67497253,1.9615326000000002,1
2665,9.064941000000001,-0.6330719,1.904068,1
2666,9.029022,-0.72883606,1.8669586,1
2667,9.036209,-0.8270110999999999,1.8573914,1
2668,9.027832,-0.8461609,1.9112548999999999,1
2669,9.044586,-0.88087463,1.9184418,1
2670,9.063736,-0.87368774,1.8873137999999998,1
2671,9.06015,-0.87249756,1.9208374,1
2672,9.049377,-0.8964386000000001,1.880127,1
2673,9.050568,-0.91319275,1.9016723999999998,1
2674,9.008666999999999,-0.9072113000000002,1.9747008999999998,1
2675,9.086487,-0.917984,1.9052734,1
2676,9.07811,-0.91200256,1.9579468,1
2677,9.068527,-0.9287566999999999,1.9351958999999999,1
2678,9.011063,-0.91200256,1.9028778000000002,1
2679,9.003891000000001,-0.8880615,1.9794922,1
2680,9.035003999999999,-0.8533478000000001,1.9663238999999997,1
2681,9.035003999999999,-0.8246155000000001,1.9387816999999998,1
2682,8.96199,-0.73602295,2.0249786,1
2683,9.024231,-0.7001189999999999,1.9328003,1
2684,9.117614999999999,-0.7276459,1.8537903000000002,1
2685,9.102051,-0.7491913,1.9244232,1
2686,9.027832,-0.7815094,1.9292145,1
2687,8.995499,-0.7707366999999999,1.9100647000000002,1
2688,9.048172000000001,-0.7671509,1.8573914,1
2689,9.085281,-0.75756836,1.7747803,1
2690,9.122391,-0.80545044,1.6849976000000002,1
2691,9.09845,-0.87249756,1.6921843999999997,1
2692,9.0577545,-0.87368774,1.7556305,1
2693,9.072113,-0.88087463,1.8621674,1
2694,9.076903999999999,-0.84376526,1.7999268,1
2695,8.989517,-0.8102417,1.8956909,1
2696,8.910507,-0.7803191999999999,2.0369568,1
2697,8.916504,-0.82940674,2.1865845,1
2698,8.942825,-0.8425598,2.203354,1
2699,9.088882,-0.7803191999999999,2.1147614,1
2700,9.116408999999999,-0.7276459,2.0118103,1
2701,9.127182000000001,-0.64863586,1.8980865000000002,1
2702,9.066132000000001,-0.6869506999999999,1.8789368000000002,1
2703,9.044586,-0.7551727,1.848999,1
2704,9.054169,-0.8712921,1.8083038,1
2705,9.087677000000001,-0.8641205,1.7101439999999999,1
2706,9.069733,-0.82940674,1.7460631999999998,1
2707,9.100845,-0.8581238000000001,1.796341,1
2708,9.115219,-0.89045715,1.8765411,1
2709,9.111618,-0.9263610999999999,1.8753357,1
2710,9.088882,-0.89045715,1.8585814999999999,1
2711,9.06134,-0.8976288,1.8549957,1
2712,9.039795,-0.8868560999999999,1.8406220000000002,1
2713,9.027832,-0.8677063,1.8573914,1
2714,9.137955,-0.77552795,1.7903441999999998,1
2715,9.187042,-0.64505005,1.7412720000000002,1
2716,9.07811,-0.68574524,1.8729552999999999,1
2717,9.023041000000001,-0.82341003,1.9711151000000002,1
2718,8.989517,-0.9287566999999999,1.9986419999999998,1
2719,8.908112,-1.0293120999999998,2.0824432,1
2720,8.952408,-1.0436859,2.18779,1
2721,8.862625,-0.91319275,2.1004028,1
2722,9.163101,-0.85214233,1.9399872,1
2723,9.205002,-0.7707366999999999,1.9160461,1
2724,9.099655,-0.8413695999999999,2.0130157,1
2725,9.030228,-0.8246155000000001,1.9663238999999997,1
2726,8.975159,-0.8425598,2.0800476000000003,1
2727,8.897339,-0.87968445,2.1063842999999998,1
2728,8.957199000000001,-0.838974,2.1075744999999997,1
2729,9.100845,-0.83657837,1.8705596999999998,1
2730,9.102051,-0.7623595999999999,1.780777,1
2731,9.045776,-0.76356506,1.828659,1
2732,9.06015,-0.8688965,1.8693542,1
2733,9.07811,-0.8820648000000001,1.9004822000000001,1
2734,9.046982,-0.8413695999999999,1.8549957,1
2735,9.045776,-0.7922821,1.8418273999999997,1
2736,9.005081,-0.7922821,1.8837279999999998,1
2737,9.002686,-0.81144714,1.8573914,1
2738,9.021835000000001,-0.80545044,1.844223,1
2739,9.082901,-0.86291504,1.8789368000000002,1
2740,9.103241,-0.83657837,1.8813324,1
2741,9.076903999999999,-0.84495544,1.9124603,1
2742,9.026627000000001,-0.85572815,1.9364013999999998,1
2743,9.030228,-0.8976288,1.9543456999999997,1
2744,9.027832,-0.8880615,1.928009,1
2745,9.038605,-0.85453796,1.943573,1
2746,9.062546000000001,-0.85214233,1.9495697,1
2747,9.051772999999999,-0.9155884,1.9723053,1
2748,9.048172000000001,-0.88327026,1.8932953000000001,1
2749,9.038605,-0.8353881999999999,1.9399872,1
2750,9.031417999999999,-0.89164734,1.9124603,1
2751,9.035003999999999,-0.8186188,1.9016723999999998,1
2752,9.042191,-0.8186188,1.8849182,1
2753,9.103241,-0.8270110999999999,1.8310547,1
2754,9.108032000000001,-0.85214233,1.7843628,1
2755,9.084091,-0.86531067,1.7532348999999998,1
2756,9.117614999999999,-0.8497466999999999,1.7999268,1
2757,9.081696,-0.9107970999999999,1.8142852999999999,1
