,AccX[m/s^2],AccY[m/s^2],AccZ[m/s^2],label
0,9.142746,-0.7192688,-0.18247986,1
1,9.049377,-0.5899810999999999,-0.43865967,1
2,9.049377,-0.5899810999999999,-0.43865967,1
3,9.305557,-0.6330719,-0.20281982,1
4,9.210983,-0.52653503,-0.30218506,1
5,8.958389,-0.5792084,-0.41111755,1
6,9.509064,-0.80307007,-0.109451294,1
7,9.872986000000001,-0.6941223000000001,-0.16931152,1
8,9.570114,-0.55526733,-0.34288025,1
9,9.227737,-0.6402588,-0.09986877400000001,1
10,8.910507,-0.46308900000000003,-0.16212463,1
11,9.104446000000001,-0.51216125,-0.19085693,1
12,8.997894,-0.4559021,-0.16331482,1
13,9.200211,-0.7156677,0.022232056,1
14,9.145142,-0.76594543,-0.29978943,1
15,9.31752,-0.89404297,-0.377594,1
16,9.489914,-1.028122,-0.333313,1
17,9.404907000000001,-0.9539032,-0.33091736,1
18,9.3546295,-0.9479065000000001,-0.20162964,1
19,9.006287,-0.7156677,-0.30577087,1
20,9.066132000000001,-0.8868560999999999,-0.109451294,1
21,8.964386,-0.8593291999999999,-0.22436523,1
22,9.045776,-0.74679565,-0.30458070000000004,1
23,9.346252,-0.7228545999999999,-0.39794922,1
24,9.169083,-1.0221252,0.015045166,1
25,8.809952000000001,-1.348938,0.2233429,1
26,8.454422000000001,-1.3142242,-0.27824402,1
27,9.353439,-0.8186188,0.38974000000000003,1
28,9.594055,-0.6031494000000001,-0.18606567,1
29,9.917266999999999,-0.69651794,-0.14057922,1
30,9.691025,-1.0448761,-0.28182983,1
31,9.998672500000001,-0.44992065,-0.16571045,1
32,8.98114,-0.45350647,-0.45899963,1
33,8.914108,-0.8533478000000001,-0.5224457,1
34,9.012267999999999,-0.48703003,-0.0914917,1
35,9.102051,-0.27035522,-0.5439911000000001,1
36,9.023041000000001,-0.41400146,-0.51885986,1
37,9.874176,0.14982605,-0.6002655,1
38,9.8598175,0.3102417,-1.2706451,1
39,9.485123,-0.29190063,-1.0336151,1
40,9.463577,-1.0173492,-0.7199707,1
41,9.406113000000001,-0.22605896,0.8769530999999999,1
42,9.285202,-0.58399963,0.012649536000000001,1
43,10.390121,-1.1777496,-0.5128784000000001,1
44,9.926849,0.1330719,-1.2921906,1
45,9.650314,0.03251648,0.043777465999999994,1
46,9.319916000000001,-0.58399963,-0.45780945,1
47,7.694259599999999,1.2846832000000001,-0.25430298,1
48,10.962341,-0.7108916999999999,-1.2119751,1
49,7.248932000000001,-0.27633667,-0.85884094,1
50,7.933669999999999,-0.70610046,1.1451111,1
51,10.183029,-0.30506897,-0.7702484,1
52,7.655945,0.45628357,1.04216,1
53,9.935226,0.7136688,1.0984192,1
54,9.463577,0.060043335,-0.28182983,1
55,10.379349000000001,0.43832397,-0.6732788000000001,1
56,11.140717,0.20968628,-1.1916351,1
57,9.729324,-0.07762146,-0.42907715,1
58,9.856216,-0.20570374,-0.9043273999999999,1
59,10.440399000000001,-0.4738617,0.012649536000000001,1
60,8.043808,-0.720459,-1.1940308000000002,1
61,9.001495,-0.45948792,0.88653564,1
62,7.9432526,-0.41760254,0.5262146,1
63,8.004303,-0.31225586,-0.25909424,1
64,8.507095,0.01574707,-0.020858765,1
65,8.717773,-0.51934814,0.13595581,1
66,9.444412,-0.66659546,0.32389832,1
67,10.242889,-0.6917267,0.07369995,1
68,9.3151245,-1.3609161,-0.9941101000000001,1
69,8.76207,-1.364502,-0.01727295,1
70,9.576096000000001,-0.5732269,0.46037292,1
71,10.661864999999999,0.46466064,0.8434448,1
72,9.962769,0.27313232,0.18981934,1
73,10.871367999999999,0.16059875,-0.74272156,1
74,9.559341,-0.7731323,-0.74272156,1
75,9.3546295,-1.9307251,-0.42070007,1
76,9.093674,-2.432312,0.8015441999999999,1
77,8.568146,-1.9307251,0.62916565,1
78,9.106842,-1.4806213,1.1044159,1
79,8.790802000000001,-1.6985016,0.8374634,1
80,7.2465363,-0.98023987,0.28799438,1
81,7.5422210000000005,-1.661377,-0.078323364,1
82,9.207397,-1.0712128,1.0158234,1
83,9.898117,-2.2994385,1.4623413,1
84,9.444412,-1.8265839,-0.2459259,1
85,9.420471000000001,-1.5955504999999999,0.71894836,1
86,9.276825,-2.04924,0.79556274,1
87,8.503494,-0.93115234,1.0912476,1
88,9.300766000000001,-0.9479065000000001,1.2959441999999999,1
89,10.989868,-1.0508575,1.7484436,1
90,2.1408997000000003,-0.7587738,-2.1421203999999996,1
91,9.851425,-1.6087189,3.5357208,1
92,9.790375,-1.6123047,1.5700836,1
93,8.976349,-2.3078156,2.2141266,1
94,11.156265,-1.7715148999999997,-3.472107,1
95,6.4911650000000005,0.19172668,1.4826965,1
96,5.249771,-1.4064026,0.9535674999999999,1
97,7.235763499999999,-1.2136688,2.6953582999999997,1
98,8.784821,-1.3860473999999998,2.8473816000000003,1
99,9.658707000000001,-1.186142,3.0939941,1
100,9.706589,-1.451889,1.3545989999999999,1
101,9.823898,-1.6434326000000001,1.4707184,1
102,9.816711,-1.3824615,1.2851715,1
103,9.609619,-1.2244415000000002,1.7065582,1
104,8.951217999999999,-1.5680083999999999,1.3330536,1
105,8.632782,-1.0496674,0.99427795,1
106,9.613205,-0.98143005,1.8609772,1
107,8.590881,-0.7264556999999999,2.1829987,1
108,9.096069,-1.3453522,1.0254059000000002,1
109,12.018188,-1.7691192999999998,1.5018463,1
110,8.261688000000001,-1.0496674,1.7867583999999999,1
111,8.246124,-1.7092743000000001,1.2420806999999998,1
112,9.282805999999999,-2.04805,1.1822205,1
113,8.758484,-1.4734344,0.6710663,1
114,9.428848,-1.9941711,0.7967529000000001,1
115,8.939239500000001,-2.2204285,-0.040023803999999996,1
116,8.520264,-1.3381653,1.8908996999999999,1
117,8.851852000000001,-1.5129395,1.5006561,1
118,8.693832,-1.9415131,-0.38957214,1
119,8.64476,-1.5033722,0.29756165,1
120,8.778824,-1.1442413,0.47712708,1
121,9.155914,-1.1346588,0.27720642,1
122,9.164291,-1.4267578,-0.014877318999999998,1
123,8.651932,-1.3932343,-0.54878235,1
124,8.437653,-1.7607422,-0.07592773400000001,1
125,8.01268,-2.190506,0.06173706,1
126,7.949234,-2.1222687000000002,0.06892395,1
127,8.1874695,-2.0779723999999997,0.51304626,1
128,8.905716,-2.0528412,-0.097473145,1
129,9.165497,-1.9546814,-0.6325835999999999,1
130,8.958389,-1.9379119999999999,-1.1581116000000002,1
131,8.588486,-2.0157317999999997,-0.91030884,1
132,8.441253999999999,-2.1976929,-0.8576355,1
133,8.617218,-2.3820342999999995,-0.62060547,1
134,8.617218,-2.5041504,-1.0360107,1
135,8.195847,-2.245575,-1.3316956,1
136,7.2752686,-1.3070374,-1.6022339,1
137,6.419341999999999,-1.2843018,-0.9366455,1
138,6.926910400000001,-0.7096863,-0.26507568,1
139,6.942474400000001,-0.9323425,-1.0240326,1
140,7.4955444,-1.1645813,-0.35725403,1
141,8.373016,-1.2735290000000001,0.09046936,1
142,9.111618,-2.1797332999999997,-1.1078339,1
143,9.407303,-2.4442902,-1.4130858999999998,1
144,8.630386,-1.5177307,-4.741028,1
145,10.885727000000001,-0.51815796,-1.6728668000000002,1
146,10.649902,-0.7276459,1.5940246999999999,1
147,9.538986,-1.2447968,0.53578186,1
148,8.917694000000001,-2.2563477,-0.9354553,1
149,7.429702799999999,-1.5799866000000002,-1.1652985,1
150,8.017471,0.5281066999999999,1.0325775,1
151,7.816360499999999,0.42156982,1.0708923000000001,1
152,7.5961,-1.9869994999999998,0.048568726,1
153,7.9779663,-2.669342,-0.23394775,1
154,9.111618,-2.2324066000000005,-0.24951172,1
155,9.456389999999999,-1.8792572,-1.7303313999999999,1
156,9.771225,-0.9826355,-2.1983947999999995,1
157,9.847839,0.038497925,-2.017624,1
158,9.084091,-0.117126465,-2.100235,1
159,8.432861,-1.1011353000000002,-1.2730255,1
160,8.382584,-1.7272186,-1.3712006,1
161,8.622009,-2.143814,-1.7961731,1
162,9.0972595,-1.9211578,-2.302536,1
163,9.756866,-1.9151764,-2.2079619999999998,1
164,10.750458,-2.0851593,-1.085083,1
165,10.927628,-2.356903,-2.093048,1
166,10.634338,-2.0731811999999996,-2.5503387,1
167,10.505051,-2.2324066000000005,-2.4246368,1
168,10.288376,-2.261139,-2.310913,1
169,10.773193,-1.6793365000000002,-1.0814972,1
170,10.604416,-1.0317078000000002,0.0006866455,1
171,10.575683999999999,-0.9766388,1.0912476,1
172,10.367386,-1.7212372,0.15270996,1
173,10.141129,-2.4526672,0.508255,1
174,10.612793,-2.5951232999999996,1.0158234,1
175,11.146697999999999,-2.3185882999999996,2.0513153,1
176,10.989868,-2.0121307,2.1686249,1
177,10.072891,-0.9323425,1.4862823,1
178,11.023392,-0.25598145,1.1738434,1
179,11.820663,0.008575439,0.9930725,1
180,10.873764,0.24440002,1.0481415,1
181,9.790375,0.44432068,1.334259,1
182,9.243300999999999,0.35693359999999996,2.1602478,1
183,8.46759,0.46945190000000003,2.4200287,1
184,8.466385,0.7687378,2.2009583,1
185,8.121628,1.2116547,2.6486664,1
186,8.021072,1.671341,3.0125884999999997,1
187,8.054580999999999,1.8568878,3.061676,1
188,8.363434,1.5863495,4.043289,1
189,8.346680000000001,1.0296935999999999,3.8888702000000004,1
190,8.693832,0.47305298,4.2144775,1
191,8.466385,-0.0010070800999999999,4.0001983999999995,1
192,8.180283,-0.15303039999999998,4.307846,1
193,7.8845979999999996,-0.29309082,4.9650574,1
194,7.960006699999999,-0.27514648,5.460662999999999,1
195,7.4201202,-0.46548462,5.6138916,1
196,7.090911999999999,-0.49661255,5.6881104,1
197,7.332733,-0.31584167,5.6258545,1
198,7.563766499999999,0.39881897,6.0771637,1
199,7.4201202,0.71965027,5.741974,1
200,7.343506,0.39283752,4.811828599999999,1
201,7.606872599999999,-0.36013794,4.9566803,1
202,8.222183,-0.89045715,4.7160645,1
203,8.577713000000001,-0.6641998,4.311447,1
204,8.896149000000001,-0.34576416,4.236023,1
205,9.030228,0.13067627,4.030121,1
206,8.794388,0.5927581999999999,3.9571074999999998,1
207,8.48793,0.65141296,4.117508,1
208,8.138382,0.48860168,4.4072113,1
209,7.831924400000001,0.15701294,4.3856660000000005,1
210,7.6475677,-0.23683167,4.7914734,1
211,7.5386353,-0.22845459,4.880066,1
212,7.511092999999999,-0.35534668,4.908798,1
213,7.511092999999999,-0.4774475,4.9626617,1
214,7.530258,-0.51815796,5.1601870000000005,1
215,7.4500427,-0.35534668,5.5276947,1
216,7.317169,-0.18894958,5.7671204000000005,1
217,7.2704773000000005,0.07081604,5.7647247,1
218,7.3028107,0.30784607,5.6952972,1
219,7.2860413,0.54966736,5.697693,1
220,7.398575,0.73521423,5.6497955,1
221,7.4991302,0.67774963,5.666565,1
222,7.578140299999999,0.6023407,5.6893005,1
223,7.545822,0.45030212,5.642624,1
224,7.375824000000001,0.35812378,5.7335970000000005,1
225,7.2980194,0.36410522,5.652191,1
226,7.305206299999999,0.17736816,5.659378,1
227,7.5051117,0.18095398,5.555237,1
228,7.6415863,0.19770813,5.4594574,1
229,7.758896000000001,0.19412231,5.3445434999999994,1
230,7.748123,0.1618042,5.378067,1
231,7.659546000000001,0.0756073,5.3696747,1
232,7.5278625,0.050476074,5.2667236,1
233,7.462021000000001,0.07081604,5.3541107000000006,1
234,7.473984,0.110321045,5.31102,1
235,7.541030999999999,0.1845398,5.3170013,1
236,7.6475677,0.27313232,5.379257,1
237,7.629608,0.35693359999999996,5.3493347,1
238,7.632003999999999,0.36170959999999996,5.3852386,1
239,7.6966553,0.26235962,5.4008026,1
240,7.770874000000001,0.1845398,5.361297599999999,1
241,7.770874000000001,0.1330719,5.2930603,1
242,7.737350500000001,0.16539001,5.318207,1
243,7.6415863,0.21687317,5.378067,1
244,7.5470123,0.17497253,5.355316,1
245,7.4572296,0.10433959999999999,5.3708800000000005,1
246,7.3937836,0.088775635,5.407989499999999,1
247,7.349487299999999,0.12109375,5.495376599999999,1
248,7.379425,0.12469482400000001,5.538467400000001,1
249,7.579330400000001,0.1330719,5.47023,1
250,7.6547546,0.20610046,5.3325653,1
251,7.724182000000001,0.31622314,5.307434,1
252,7.700241,0.35453796,5.3517303,1
253,7.663131699999999,0.34735107,5.3684845,1
254,7.6415863,0.32699585,5.3541107000000006,1
255,7.572159,0.36051940000000005,5.382843,1
256,7.533844,0.31861877,5.4319305,1
257,7.494339,0.2922821,5.485794,1
258,7.478775,0.23602295,5.4869995000000005,1
259,7.4991302,0.1330719,5.5276947,1
260,7.5278625,0.028915405,5.500168,1
261,7.5865173,0.026535034,5.4438934,1
262,7.5948944,0.04447937,5.4630585,1
263,7.5278625,0.06842041,5.3972169999999995,1
264,7.4991302,0.100753784,5.418762,1
265,7.458435000000001,0.086380005,5.497772,1
266,7.4680023,0.06602478,5.5276947,1
267,7.476379400000001,0.079193115,5.475021400000001,1
268,7.501525999999999,0.18095398,5.363693,1
269,7.511092999999999,0.31861877,5.3996124000000005,1
270,7.532653999999999,0.41079712,5.4271392999999994,1
271,7.530258,0.33657837,5.4678497,1
272,7.512298599999999,0.37249756,5.4570620000000005,1
273,7.43808,0.28509520000000005,5.500168,1
274,7.458435000000001,0.24559021,5.615082,1
275,7.4452667,0.21447754,5.6294556,1
276,7.451248,0.22285461,5.6701508,1
277,7.4572296,0.21087646,5.6294556,1
278,7.462021000000001,0.22883606,5.6091003,1
279,7.502716,0.2240448,5.5145264,1
280,7.5075073,0.13426208,5.5145264,1
281,7.533844,0.16539001,5.461853,1
282,7.526657000000001,0.13186646,5.4331207,1
283,7.5099029999999996,0.081588745,5.44989,1
284,7.519485499999999,0.045684814000000004,5.476227,1
285,7.4895477,-0.011779785,5.4331207,1
286,7.523071300000001,0.036102295,5.4678497,1
287,7.4991302,0.076812744,5.516922,1
288,7.4955444,0.18814087,5.503753700000001,1
289,7.4835663,0.21208191,5.568405,1
290,7.478775,0.26235962,5.5540314,1
291,7.51828,0.2707367,5.54924,1
292,7.4524384,0.25756836,5.583954,1
293,7.454834,0.18334961,5.540863,1
294,7.478775,0.1905365,5.5217133,1
295,7.497925,0.16897583,5.5049589999999995,1
296,7.4644165,0.17736816,5.520508,1
297,7.4644165,0.12709045,5.5217133,1
298,7.508713,0.15461731,5.571991000000001,1
299,7.5374300000000005,0.12109375,5.533676,1
300,7.4955444,0.13426208,5.5109406,1
301,7.460815400000001,0.16659546,5.597122,1
302,7.426101700000001,0.22045898,5.6174774,1
303,7.448852499999999,0.23242188,5.5432587,1
304,7.4500427,0.259964,5.537277,1
305,7.430892999999999,0.25756836,5.5516357,1
306,7.4644165,0.21447754,5.580368,1
307,7.4680023,0.2132721,5.576782,1
308,7.4656066999999995,0.14863586,5.604309,1
309,7.454834,0.074417114,5.589950599999999,1
310,7.4452667,0.06842041,5.556426999999999,1
311,7.4021606,0.081588745,5.54805,1
312,7.4500427,0.12469482400000001,5.567199700000001,1
313,7.447647,0.18334961,5.518127400000001,1
314,7.4895477,0.23721313,5.518127400000001,1
315,7.5039215,0.19172668,5.592346,1
316,7.502716,0.23123169,5.5851593,1
317,7.501525999999999,0.26834106,5.544464,1
318,7.448852499999999,0.27313232,5.5851593,1
319,7.422516000000001,0.27192688,5.597122,1
320,7.406952,0.2300415,5.562408400000001,1
321,7.4249115,0.22764587,5.6210785,1
322,7.442871,0.21687317,5.62825,1
323,7.4213104,0.2300415,5.603119,1
324,7.485962,0.15940857,5.5983276,1
325,7.462021000000001,0.21806335,5.6055145,1
326,7.429702799999999,0.17376709,5.595932,1
327,7.3973694000000005,0.23841858,5.6234589999999995,1
328,7.372238,0.21087646,5.633041400000001,1
329,7.3482970000000005,0.1510315,5.721634,1
330,7.354278599999999,0.112716675,5.6701508,1
331,7.3411100000000005,0.117507935,5.6306458,1
332,7.398575,0.17736816,5.683319,1
333,7.383011,0.20729065,5.709656,1
334,7.384200999999999,0.17616272,5.724029499999999,1
335,7.366256699999999,0.17616272,5.6773375999999995,1
336,7.3889923,0.21687317,5.6964874000000005,1
337,7.4165344,0.22764587,5.639023,1
338,7.3818207,0.31622314,5.619873,1
339,7.3375244,0.30065918,5.671355999999999,1
340,7.3782195999999995,0.30545044,5.698883,1
341,7.387802000000001,0.28988647,5.6641693,1
342,7.323150599999999,0.30903625,5.730011,1
343,7.3459015,0.28869629999999996,5.718033,1
344,7.305206299999999,0.25277710000000003,5.745575,1
345,7.300414999999999,0.24320984,5.7599335,1
346,7.3111877000000005,0.21447754,5.741974,1
347,7.338714599999999,0.18095398,5.72641,1
348,7.3782195999999995,0.1725769,5.70726,1
349,7.410537700000001,0.18814087,5.6450195,1
350,7.423706,0.20010376,5.658188,1
351,7.448852499999999,0.1797638,5.642624,1
352,7.454834,0.16059875,5.5983276,1
353,7.4727936,0.16778564,5.5983276,1
354,7.4596252000000005,0.24081421,5.6462097,1
355,7.404556299999999,0.21566772,5.676132,1
356,7.363861,0.21208191,5.704864499999999,1
357,7.3375244,0.18814087,5.721634,1
358,7.314773599999999,0.20370483,5.7168427,1
359,7.313583400000001,0.25038147,5.752746599999999,1
360,7.349487299999999,0.338974,5.7192383,1
361,7.353088400000001,0.39164734,5.698883,1
362,7.367447,0.4359436,5.7132416,1
363,7.392593400000001,0.4407196,5.6677550000000005,1
364,7.3973694000000005,0.37608337,5.6354370000000005,1
365,7.3746339999999995,0.29109192,5.618683,1
366,7.354278599999999,0.24081421,5.6007233,1
367,7.3578644,0.1725769,5.655792,1
368,7.3482970000000005,0.09236145,5.7060699999999995,1
369,7.3698425,0.122299194,5.6952972,1
370,7.371032700000001,0.14624023,5.653396599999999,1
371,7.3865967,0.18574524,5.672546400000001,1
372,7.4117429999999995,0.2707367,5.6881104,1
373,7.404556299999999,0.27432249999999997,5.6845245,1
374,7.355484,0.25875854,5.631851,1
375,7.293228,0.24919128,5.6701508,1
376,7.3411100000000005,0.22883606,5.720428500000001,1
377,7.3997649999999995,0.25875854,5.682129,1
378,7.396178999999999,0.26834106,5.690506,1
379,7.367447,0.26235962,5.7252197,1
380,7.3578644,0.28869629999999996,5.691696,1
381,7.3375244,0.31263733,5.678528,1
382,7.3746339999999995,0.28271484,5.5863495,1
383,7.429702799999999,0.26834106,5.660568,1
384,7.404556299999999,0.27911377,5.683319,1
385,7.469208,0.2815094,5.730011,1
386,7.4177246,0.33178709999999995,5.7838745000000005,1
387,7.3363190000000005,0.3222046,5.777893,1
388,7.3028107,0.27552795,5.734802200000001,1
389,7.320755,0.25517273,5.7288055,1
390,7.239364599999999,0.24679565,5.769516,1
391,7.198653999999999,0.24320984,5.8030243,1
392,7.2082367,0.23242188,5.855697599999999,1
393,7.228592,0.1510315,5.8748627,1
394,7.301605,0.15940857,5.7958527,1
395,7.3770294000000005,0.14503479,5.785080000000001,1
396,7.4320984,0.13426208,5.755142,1
397,7.4165344,0.15342712,5.6797333,1
398,7.400970500000001,0.16059875,5.6055145,1
399,7.363861,0.20848083,5.587555,1
400,7.3183746,0.17736816,5.6258545,1
401,7.3686523,0.24919128,5.683319,1
402,7.3578644,0.25038147,5.7683105,1
403,7.344696000000001,0.34376526,5.7324066,1
404,7.344696000000001,0.35572815,5.7120514,1
405,7.3470917,0.37727356,5.741974,1
406,7.300414999999999,0.32580566,5.745575,1
407,7.235763499999999,0.30186462,5.8317566,1
408,7.287246700000001,0.31143188,5.8425293,1
409,7.319564999999999,0.28509520000000005,5.770706,1
410,7.324356,0.25398254,5.653396599999999,1
411,7.338714599999999,0.24081421,5.6857147,1
412,7.379425,0.16897583,5.72641,1
413,7.409347500000001,0.12109375,5.718033,1
414,7.36026,0.18814087,5.686905,1
415,7.379425,0.2348175,5.6474,1
416,7.3482970000000005,0.24919128,5.6893005,1
417,7.2896423,0.29109192,5.714447,1
418,7.365051299999999,0.23123169,5.731201,1
419,7.3734283,0.24679565,5.7012787000000005,1
420,7.349487299999999,0.22525024,5.735992400000001,1
421,7.3459015,0.25517273,5.7288055,1
422,7.323150599999999,0.25637817,5.731201,1
423,7.3028107,0.29588318,5.7335970000000005,1
424,7.3087919999999995,0.26715088,5.757537999999999,1
425,7.354278599999999,0.28271484,5.7335970000000005,1
426,7.380615,0.22164917,5.703674299999999,1
427,7.372238,0.18334961,5.6964874000000005,1
428,7.409347500000001,0.2132721,5.6964874000000005,1
429,7.391388,0.22285461,5.671355999999999,1
430,7.344696000000001,0.23841858,5.634247,1
431,7.356674000000001,0.24679565,5.7060699999999995,1
432,7.3375244,0.25756836,5.6964874000000005,1
433,7.3818207,0.2707367,5.746765,1
434,7.3614654999999996,0.259964,5.7324066,1
435,7.356674000000001,0.26834106,5.7371826,1
436,7.327942,0.24798584,5.715637,1
437,7.317169,0.24559021,5.731201,1
438,7.314773599999999,0.22285461,5.730011,1
439,7.3087919999999995,0.27552795,5.7324066,1
440,7.3411100000000005,0.27552795,5.731201,1
441,7.398575,0.27552795,5.674942,1
442,7.4165344,0.2803192,5.691696,1
443,7.3901978,0.29348755,5.655792,1
444,7.354278599999999,0.30545044,5.690506,1
445,7.324356,0.27911377,5.7407837,1
446,7.354278599999999,0.32939148,5.7407837,1
447,7.3746339999999995,0.259964,5.741974,1
448,7.2896423,0.26235962,5.672546400000001,1
449,7.2704773000000005,0.22164917,5.709656,1
450,7.3075867,0.15342712,5.7443695,1
451,7.365051299999999,0.16897583,5.698883,1
452,7.4201202,0.21208191,5.7192383,1
453,7.4129333,0.27911377,5.7192383,1
454,7.339919999999999,0.30426025,5.662964,1
455,7.299209599999999,0.33537292,5.636627,1
456,7.305206299999999,0.31861877,5.690506,1
457,7.387802000000001,0.27432249999999997,5.702469000000001,1
458,7.3614654999999996,0.2707367,5.718033,1
459,7.343506,0.25875854,5.70726,1
460,7.394989,0.22764587,5.6773375999999995,1
461,7.3889923,0.25038147,5.666565,1
462,7.365051299999999,0.24679565,5.7012787000000005,1
463,7.3411100000000005,0.26475525,5.710861,1
464,7.295624,0.2707367,5.7288055,1
465,7.309982300000001,0.29826355,5.721634,1
466,7.283645599999999,0.2815094,5.738388,1
467,7.355484,0.26235962,5.6617737,1
468,7.3482970000000005,0.24081421,5.708465599999999,1
469,7.4117429999999995,0.22045898,5.6929016,1
470,7.3818207,0.24320984,5.7276154,1
471,7.372238,0.26834106,5.708465599999999,1
472,7.3339232999999995,0.25038147,5.6964874000000005,1
473,7.3578644,0.22525024,5.7192383,1
474,7.3482970000000005,0.23242188,5.708465599999999,1
475,7.3375244,0.22764587,5.7563477,1
476,7.300414999999999,0.28630066,5.7276154,1
477,7.335128999999999,0.27313232,5.7132416,1
478,7.367447,0.28390503,5.6964874000000005,1
479,7.36026,0.26834106,5.6617737,1
480,7.35907,0.27911377,5.7132416,1
481,7.36026,0.23602295,5.70726,1
482,7.365051299999999,0.26594543,5.672546400000001,1
483,7.327942,0.2515869,5.6857147,1
484,7.3339232999999995,0.25756836,5.7395781999999995,1
485,7.387802000000001,0.30305479999999996,5.7479705999999995,1
486,7.415328999999999,0.2803192,5.7000732,1
487,7.410537700000001,0.23960876,5.6462097,1
488,7.355484,0.27792358,5.6773375999999995,1
489,7.314773599999999,0.20489502,5.774307299999999,1
490,7.300414999999999,0.2348175,5.755142,1
491,7.309982300000001,0.25277710000000003,5.7276154,1
492,7.3063965,0.30065918,5.7599335,1
493,7.344696000000001,0.33059692,5.720428500000001,1
494,7.3818207,0.30903625,5.674942,1
495,7.3889923,0.32460022,5.6881104,1
496,7.396178999999999,0.29707336,5.714447,1
497,7.335128999999999,0.27313232,5.755142,1
498,7.3770294000000005,0.22164917,5.720428500000001,1
499,7.36026,0.23242188,5.697693,1
500,7.338714599999999,0.19651794,5.7000732,1
501,7.3087919999999995,0.18214417,5.7443695,1
502,7.3459015,0.23960876,5.7288055,1
503,7.3315277000000005,0.2803192,5.753952,1
504,7.349487299999999,0.28988647,5.714447,1
505,7.3291473,0.28749084,5.683319,1
506,7.35907,0.28271484,5.7060699999999995,1
507,7.355484,0.25756836,5.6964874000000005,1
508,7.356674000000001,0.26235962,5.686905,1
509,7.349487299999999,0.28749084,5.6929016,1
510,7.344696000000001,0.2803192,5.730011,1
511,7.3183746,0.27192688,5.720428500000001,1
512,7.363861,0.25875854,5.715637,1
513,7.355484,0.28271484,5.722824,1
514,7.3578644,0.25875854,5.745575,1
515,7.332733,0.26834106,5.769516,1
516,7.3087919999999995,0.26475525,5.761139,1
517,7.321960400000001,0.27192688,5.745575,1
518,7.323150599999999,0.28749084,5.70726,1
519,7.365051299999999,0.2803192,5.7000732,1
520,7.349487299999999,0.27911377,5.746765,1
521,7.351883,0.2348175,5.6952972,1
522,7.3626556,0.25398254,5.7012787000000005,1
523,7.320755,0.23960876,5.70726,1
524,7.338714599999999,0.27313232,5.708465599999999,1
525,7.354278599999999,0.31503296,5.757537999999999,1
526,7.379425,0.25637817,5.724029499999999,1
527,7.3303375,0.26834106,5.686905,1
528,7.287246700000001,0.25756836,5.735992400000001,1
529,7.315979,0.22285461,5.7898559999999994,1
530,7.3183746,0.23721313,5.781479,1
531,7.292038000000001,0.26115417,5.715637,1
532,7.324356,0.27911377,5.7060699999999995,1
533,7.320755,0.32101440000000003,5.749161,1
534,7.332733,0.3222046,5.724029499999999,1
535,7.3470917,0.28509520000000005,5.7168427,1
536,7.3482970000000005,0.28390503,5.703674299999999,1
537,7.351883,0.2132721,5.762329,1
538,7.321960400000001,0.24679565,5.72641,1
539,7.3459015,0.26235962,5.7288055,1
540,7.353088400000001,0.28271484,5.6881104,1
541,7.320755,0.3102417,5.762329,1
542,7.3303375,0.24200439999999998,5.746765,1
543,7.3183746,0.22285461,5.7371826,1
544,7.299209599999999,0.21208191,5.730011,1
545,7.327942,0.25637817,5.708465599999999,1
546,7.3315277000000005,0.2707367,5.7192383,1
547,7.351883,0.28509520000000005,5.7132416,1
548,7.351883,0.31742859999999995,5.730011,1
549,7.343506,0.32341003,5.7395781999999995,1
550,7.323150599999999,0.33059692,5.718033,1
551,7.321960400000001,0.31622314,5.741974,1
552,7.312378,0.2922821,5.7587433,1
553,7.321960400000001,0.25517273,5.7587433,1
554,7.324356,0.27671814,5.7371826,1
555,7.3423157,0.24440002,5.720428500000001,1
556,7.3363190000000005,0.2240448,5.746765,1
557,7.3255463,0.22525024,5.7371826,1
558,7.3291473,0.25875854,5.731201,1
559,7.3363190000000005,0.3138275,5.702469000000001,1
560,7.3363190000000005,0.27911377,5.703674299999999,1
561,7.3339232999999995,0.27313232,5.710861,1
562,7.3363190000000005,0.29826355,5.6845245,1
563,7.365051299999999,0.2803192,5.691696,1
564,7.323150599999999,0.2922821,5.7335970000000005,1
565,7.3470917,0.26115417,5.762329,1
566,7.372238,0.28749084,5.7647247,1
567,7.366256699999999,0.23602295,5.636627,1
568,7.3315277000000005,0.21447754,5.676132,1
569,7.3411100000000005,0.2515869,5.698883,1
570,7.353088400000001,0.26475525,5.734802200000001,1
571,7.3255463,0.25038147,5.698883,1
572,7.3255463,0.35214233,5.686905,1
573,7.3303375,0.31982422,5.718033,1
574,7.3375244,0.30305479999999996,5.718033,1
575,7.3482970000000005,0.30065918,5.6450195,1
576,7.3626556,0.28988647,5.720428500000001,1
577,7.383011,0.29707336,5.6881104,1
578,7.404556299999999,0.24440002,5.6940919999999995,1
579,7.365051299999999,0.2695465,5.6845245,1
580,7.355484,0.25875854,5.666565,1
581,7.349487299999999,0.24200439999999998,5.697693,1
582,7.35907,0.23242188,5.682129,1
583,7.363861,0.27313232,5.697693,1
584,7.3770294000000005,0.26115417,5.6929016,1
585,7.366256699999999,0.27792358,5.6737366,1
586,7.356674000000001,0.2635498,5.686905,1
587,7.396178999999999,0.26115417,5.6845245,1
588,7.384200999999999,0.2300415,5.652191,1
589,7.406952,0.25038147,5.6653595,1
590,7.3818207,0.2515869,5.660568,1
591,7.391388,0.30545044,5.6569824,1
592,7.379425,0.3102417,5.6773375999999995,1
593,7.379425,0.299469,5.691696,1
594,7.363861,0.30186462,5.6929016,1
595,7.3291473,0.29467773,5.7120514,1
596,7.339919999999999,0.26235962,5.7000732,1
597,7.3470917,0.29826355,5.708465599999999,1
598,7.335128999999999,0.27552795,5.697693,1
599,7.3411100000000005,0.26115417,5.660568,1
600,7.3423157,0.26594543,5.691696,1
601,7.3614654999999996,0.31861877,5.682129,1
602,7.3865967,0.31982422,5.702469000000001,1
603,7.436874400000001,0.27313232,5.683319,1
604,7.4249115,0.22045898,5.659378,1
605,7.379425,0.22525024,5.658188,1
606,7.351883,0.20848083,5.70726,1
607,7.379425,0.23602295,5.7599335,1
608,7.314773599999999,0.23242188,5.662964,1
609,7.2908325,0.29109192,5.7335970000000005,1
610,7.2944183,0.3222046,5.749161,1
611,7.309982300000001,0.35214233,5.7587433,1
612,7.301605,0.35333252,5.731201,1
613,7.287246700000001,0.36051940000000005,5.7324066,1
614,7.3183746,0.30784607,5.7407837,1
615,7.312378,0.28988647,5.714447,1
616,7.349487299999999,0.24559021,5.6940919999999995,1
617,7.371032700000001,0.1905365,5.6857147,1
618,7.339919999999999,0.1797638,5.6689606,1
619,7.321960400000001,0.098358154,5.6809235000000005,1
620,7.326751700000001,0.07081604,5.6091003,1
621,7.343506,0.21566772,5.637832599999999,1
622,7.3734283,0.28390503,5.659378,1
623,7.4284973,0.2515869,5.556426999999999,1
624,7.4416656,0.26235962,5.494171,1
625,7.523071300000001,0.34616090000000005,5.460662999999999,1
626,7.550598,0.4359436,5.458267,1
627,7.5314483999999995,0.4287567,5.5193176,1
628,7.436874400000001,0.39164734,5.597122,1
629,7.320755,0.28869629999999996,5.637832599999999,1
630,7.323150599999999,0.22164917,5.633041400000001,1
631,7.442871,0.26235962,5.595932,1
632,7.604477,0.31143188,5.5695953000000005,1
633,7.693053999999999,0.40481567,5.568405,1
634,7.6176452999999995,0.47543335,5.5504456,1
635,7.496734599999999,0.49099729999999997,5.642624,1
636,7.4680023,0.46826172,5.639023,1
637,7.4716034,0.36291504,5.5540314,1
638,7.453644000000001,0.32699585,5.5827637,1
639,7.4452667,0.35932922,5.603119,1
640,7.410537700000001,0.43354797,5.6474,1
641,7.4057617,0.44311523,5.594742,1
642,7.396178999999999,0.4084015,5.5396730000000005,1
643,7.4189300000000005,0.32580566,5.522903400000001,1
644,7.4440612999999995,0.21687317,5.579178,1
645,7.4847565000000005,0.13905334,5.5707855,1
646,7.475189,0.115112305,5.489395,1
647,7.5075073,0.098358154,5.481018,1
648,7.470397999999999,0.12709045,5.5456543,1
649,7.485962,0.062438965,5.642624,1
650,7.4464570000000005,-0.012969971,5.6641693,1
651,7.4955444,0.05645752,5.678528,1
652,7.4656066999999995,0.13786316,5.6689606,1
653,7.383011,0.33776855,5.6569824,1
654,7.3375244,0.49699402,5.587555,1
655,7.317169,0.56521606,5.5073395,1
656,7.296814,0.39283752,5.485794,1
657,7.398575,0.14503479,5.490585299999999,1
658,7.501525999999999,-0.0021972656,5.485794,1
659,7.6547546,-0.0440979,5.5660095,1
660,7.610458400000001,0.064834595,5.634247,1
661,7.508713,0.13067627,5.6569824,1
662,7.406952,0.1845398,5.651001,1
663,7.277664,0.18574524,5.7132416,1
664,7.28125,0.11392212,5.698883,1
665,7.3339232999999995,0.07081604,5.674942,1
666,7.391388,0.055252075,5.660568,1
667,7.435683999999999,0.107925415,5.634247,1
668,7.4656066999999995,0.14743042,5.6474,1
669,7.490753,0.13905334,5.6306458,1
670,7.5051117,0.115112305,5.651001,1
671,7.458435000000001,0.21447754,5.555237,1
672,7.355484,0.29588318,5.5432587,1
673,7.299209599999999,0.35453796,5.619873,1
674,7.335128999999999,0.3497467,5.643814,1
675,7.3411100000000005,0.3102417,5.6617737,1
676,7.404556299999999,0.31742859999999995,5.708465599999999,1
677,7.451248,0.30545044,5.720428500000001,1
678,7.469208,0.24798584,5.674942,1
679,7.4213104,0.20010376,5.611496,1
680,7.3997649999999995,0.14982605,5.6486053,1
681,7.400970500000001,0.13067627,5.6462097,1
682,7.408142,0.08279419,5.612686,1
683,7.415328999999999,0.12828064,5.6210785,1
684,7.430892999999999,0.17376709,5.6402282999999995,1
685,7.3997649999999995,0.21566772,5.659378,1
686,7.408142,0.22525024,5.7012787000000005,1
687,7.391388,0.23841858,5.6964874000000005,1
688,7.349487299999999,0.299469,5.6845245,1
689,7.344696000000001,0.33537292,5.6677550000000005,1
690,7.394989,0.38804626,5.714447,1
691,7.3889923,0.42755127,5.7000732,1
692,7.283645599999999,0.40600586,5.6773375999999995,1
693,7.122039999999999,0.41198729999999995,5.698883,1
694,7.1411896,0.38087463,5.810211,1
695,7.2740784,0.30065918,5.8545074,1
696,7.414139,0.27911377,5.80542,1
697,7.4955444,0.25398254,5.631851,1
698,7.4440612999999995,0.32101440000000003,5.5252989999999995,1
699,7.332733,0.38206482,5.5863495,1
700,7.3818207,0.36410522,5.70726,1
701,7.4716034,0.24200439999999998,5.5827637,1
702,7.5446167,0.17376709,5.4319305,1
703,7.580536,0.18095398,5.3541107000000006,1
704,7.588913000000001,0.21687317,5.3876343,1
705,7.5518035999999995,0.31982422,5.421158,1
706,7.525467,0.34016418,5.419952400000001,1
707,7.501525999999999,0.36650085,5.4570620000000005,1
708,7.488357499999999,0.29109192,5.4989624,1
709,7.524261500000001,0.2815094,5.4929809999999994,1
710,7.508713,0.31982422,5.5324860000000005,1
711,7.4895477,0.3222046,5.575577,1
712,7.4201202,0.31861877,5.568405,1
713,7.3901978,0.22525024,5.588744999999999,1
714,7.375824000000001,0.21566772,5.5648040000000005,1
715,7.4117429999999995,0.19293213,5.583954,1
716,7.469208,0.20489502,5.560013,1
717,7.532653999999999,0.26115417,5.5504456,1
718,7.557785000000001,0.26834106,5.5324860000000005,1
719,7.5051117,0.30903625,5.524108999999999,1
720,7.4440612999999995,0.33418274,5.5145264,1
721,7.460815400000001,0.33418274,5.5348816,1
722,7.391388,0.27671814,5.588744999999999,1
723,7.4165344,0.20010376,5.62706,1
724,7.3973694000000005,0.12588501,5.374466,1
725,7.536239599999999,0.16778564,5.5695953000000005,1
726,7.590103,0.13786316,5.4929809999999994,1
727,7.6380005,0.20729065,5.4091797,1
728,7.556595,0.299469,5.4678497,1
729,7.502716,0.33299255,5.4798126,1
730,7.429702799999999,0.35693359999999996,5.5193176,1
731,7.426101700000001,0.34616090000000005,5.579178,1
732,7.3901978,0.32939148,5.5983276,1
733,7.3818207,0.37368774,5.597122,1
734,7.394989,0.34495544,5.5648040000000005,1
735,7.3698425,0.41079712,5.5851593,1
736,7.384200999999999,0.42037964,5.6055145,1
737,7.4524384,0.43234253,5.522903400000001,1
738,7.435683999999999,0.36531067,5.475021400000001,1
739,7.3686523,0.31861877,5.5025635,1
740,7.372238,0.24798584,5.5863495,1
741,7.485962,0.21566772,5.54924,1
742,7.653549000000001,0.19293213,5.3996124000000005,1
743,7.8007965,0.2300415,5.284683,1
744,7.8438873,0.2348175,5.247574,1
745,7.787628,0.18095398,5.2966614000000005,1
746,7.748123,0.20489502,5.331375,1
747,7.632003999999999,0.24320984,5.3936157,1
748,7.51709,0.22883606,5.405594000000001,1
749,7.404556299999999,0.27192688,5.509735,1
750,7.4021606,0.22883606,5.508545,1
751,7.5051117,0.23242188,5.518127400000001,1
752,7.563766499999999,0.19891357,5.441513,1
753,7.621231,0.20848083,5.422348,1
754,7.609267999999999,0.27792358,5.394821,1
755,7.550598,0.30665588,5.379257,1
756,7.512298599999999,0.338974,5.3265839999999995,1
757,7.550598,0.33776855,5.3565062999999995,1
758,7.51828,0.26235962,5.4151764,1
759,7.5589905,0.2815094,5.437912,1
760,7.6056669999999995,0.25637817,5.4486847,1
761,7.6200410000000005,0.2300415,5.4786224,1
762,7.5553894,0.1905365,5.491791,1
763,7.506317,0.16539001,5.508545,1
764,7.488357499999999,0.13905334,5.47023,1
765,7.501525999999999,0.15342712,5.4271392999999994,1
766,7.5099029999999996,0.14863586,5.413971,1
767,7.5099029999999996,0.15580750000000002,5.417557,1
768,7.5314483999999995,0.16778564,5.4642487,1
769,7.566161999999999,0.16419983,5.434326,1
770,7.579330400000001,0.20968628,5.3888397,1
771,7.6032715,0.2635498,5.406784,1
772,7.5518035999999995,0.29826355,5.4367220000000005,1
773,7.469208,0.29707336,5.4798126,1
774,7.4320984,0.32101440000000003,5.509735,1
775,7.4656066999999995,0.35812378,5.5779724,1
776,7.476379400000001,0.36650085,5.5061493,1
777,7.475189,0.38446045,5.496567,1
778,7.415328999999999,0.32101440000000003,5.515732,1
779,7.4835663,0.338974,5.494171,1
780,7.519485499999999,0.30545044,5.4486847,1
781,7.5709534,0.26715088,5.4319305,1
782,7.6260223,0.2300415,5.4438934,1
783,7.660736,0.2300415,5.386444,1
784,7.6427765,0.20010376,5.4283447,1
785,7.532653999999999,0.18933105,5.39003,1
786,7.533844,0.1725769,5.413971,1
787,7.552994,0.14743042,5.4367220000000005,1
788,7.514694,0.21087646,5.5300902999999995,1
789,7.4500427,0.28509520000000005,5.508545,1
790,7.473984,0.3904419,5.5456543,1
791,7.4464570000000005,0.39404297,5.536072,1
792,7.508713,0.34616090000000005,5.5276947,1
793,7.550598,0.30545044,5.445099,1
794,7.576935000000001,0.23721313,5.4510803,1
795,7.5553894,0.26115417,5.422348,1
796,7.5003204,0.26594543,5.44989,1
797,7.4823759999999995,0.31503296,5.5217133,1
798,7.469208,0.3138275,5.490585299999999,1
799,7.4596252000000005,0.38685608,5.473831,1
800,7.4811707,0.3497467,5.4989624,1
801,7.4991302,0.3796692,5.516922,1
802,7.5003204,0.3102417,5.4989624,1
803,7.519485499999999,0.32580566,5.4642487,1
804,7.4656066999999995,0.34616090000000005,5.461853,1
805,7.442871,0.35812378,5.5109406,1
806,7.427307000000001,0.32580566,5.481018,1
807,7.427307000000001,0.31622314,5.5300902999999995,1
808,7.479980499999999,0.29109192,5.508545,1
809,7.493149000000001,0.32580566,5.47023,1
810,7.5278625,0.34854126,5.4881897,1
811,7.533844,0.31143188,5.501358,1
812,7.526657000000001,0.35453796,5.5073395,1
813,7.514694,0.30665588,5.4798126,1
814,7.4811707,0.28390503,5.5061493,1
815,7.4656066999999995,0.27552795,5.501358,1
816,7.4416656,0.26475525,5.485794,1
817,7.422516000000001,0.30065918,5.500168,1
818,7.4596252000000005,0.32699585,5.494171,1
819,7.466811999999999,0.3222046,5.4822083,1
820,7.4823759999999995,0.32580566,5.484604,1
821,7.5099029999999996,0.299469,5.465454,1
822,7.556595,0.29467773,5.4822083,1
823,7.579330400000001,0.29348755,5.494171,1
824,7.506317,0.32341003,5.508545,1
825,7.4955444,0.37249756,5.4678497,1
826,7.440475500000001,0.36051940000000005,5.4283447,1
827,7.479980499999999,0.34016418,5.4474945,1
828,7.497925,0.29348755,5.5025635,1
829,7.561386,0.29348755,5.4427031999999995,1
830,7.5446167,0.26235962,5.453476,1
831,7.5374300000000005,0.2695465,5.445099,1
832,7.563766499999999,0.24320984,5.4283447,1
833,7.552994,0.24679565,5.419952400000001,1
834,7.541030999999999,0.2192688,5.3936157,1
835,7.512298599999999,0.25038147,5.405594000000001,1
836,7.536239599999999,0.26834106,5.3912354,1
837,7.574539,0.25038147,5.386444,1
838,7.5913086,0.27313232,5.327774,1
839,7.6032715,0.22045898,5.3601074,1
840,7.649963400000001,0.26594543,5.342148,1
841,7.612854,0.22644043,5.327774,1
842,7.6080627000000005,0.25038147,5.362503,1
843,7.590103,0.28869629999999996,5.439117400000001,1
844,7.541030999999999,0.2635498,5.3996124000000005,1
845,7.491943400000001,0.29348755,5.419952400000001,1
846,7.556595,0.2803192,5.3852386,1
847,7.5996857,0.2707367,5.3732758,1
848,7.567367599999999,0.23242188,5.3601074,1
849,7.604477,0.20729065,5.3265839999999995,1
850,7.5913086,0.18933105,5.3529205,1
851,7.576935000000001,0.26834106,5.417557,1
852,7.611664,0.28630066,5.3481293,1
853,7.592499,0.30305479999999996,5.3601074,1
854,7.5518035999999995,0.22764587,5.39003,1
855,7.5314483999999995,0.16778564,5.4115753,1
856,7.567367599999999,0.1725769,5.342148,1
857,7.643982,0.22285461,5.350525,1
858,7.6380005,0.16659546,5.3170013,1
859,7.580536,0.23362732,5.3696747,1
860,7.4823759999999995,0.30545044,5.465454,1
861,7.440475500000001,0.39283752,5.422348,1
862,7.478775,0.44432068,5.4091797,1
863,7.5434265,0.45748900000000003,5.3241879999999995,1
864,7.549408000000001,0.50057983,5.3122253,1
865,7.579330400000001,0.45509338,5.3325653,1
866,7.629608,0.37727356,5.3696747,1
867,7.661941499999999,0.2192688,5.3529205,1
868,7.6822815,0.107925415,5.3529205,1
869,7.653549000000001,0.08758545,5.39003,1
870,7.648772999999999,0.067230225,5.3936157,1
871,7.635605,0.076812744,5.4031982,1
872,7.604477,0.09475708,5.3409424,1
873,7.576935000000001,0.1797638,5.346939,1
874,7.5553894,0.2192688,5.4151764,1
875,7.5470123,0.27911377,5.441513,1
876,7.5398254,0.35333252,5.489395,1
877,7.552994,0.3102417,5.445099,1
878,7.5913086,0.2515869,5.454681400000001,1
879,7.530258,0.20010376,5.419952400000001,1
880,7.506317,0.20610046,5.379257,1
881,7.4991302,0.16778564,5.39003,1
882,7.4991302,0.17855835,5.3960114,1
883,7.5386353,0.2240448,5.3840485000000005,1
884,7.532653999999999,0.21447754,5.3852386,1
885,7.590103,0.23362732,5.4403076,1
886,7.6032715,0.32101440000000003,5.465454,1
887,7.549408000000001,0.36650085,5.476227,1
888,7.476379400000001,0.38327026,5.4989624,1
889,7.440475500000001,0.36531067,5.476227,1
890,7.43808,0.32341003,5.501358,1
891,7.4452667,0.29826355,5.485794,1
892,7.5003204,0.25398254,5.522903400000001,1
893,7.5075073,0.17616272,5.496567,1
894,7.549408000000001,0.11392212,5.4594574,1
895,7.569763000000001,0.122299194,5.4331207,1
896,7.5386353,0.15222168,5.4403076,1
897,7.562576299999999,0.14863586,5.425949,1
898,7.533844,0.17497253,5.421158,1
899,7.523071300000001,0.1797638,5.434326,1
900,7.523071300000001,0.22525024,5.445099,1
901,7.5601807,0.20130920000000002,5.439117400000001,1
902,7.550598,0.18933105,5.44989,1
903,7.584121700000001,0.20010376,5.4427031999999995,1
904,7.5206757,0.2240448,5.429535,1
905,7.479980499999999,0.2240448,5.4678497,1
906,7.5039215,0.23960876,5.5073395,1
907,7.4823759999999995,0.2707367,5.4438934,1
908,7.5075073,0.27552795,5.4486847,1
909,7.506317,0.29707336,5.412781,1
910,7.508713,0.24798584,5.379257,1
911,7.5434265,0.24200439999999998,5.4091797,1
912,7.5422210000000005,0.22285461,5.3972169999999995,1
913,7.548217999999999,0.23123169,5.398407,1
914,7.5541990000000006,0.25875854,5.4355164,1
915,7.557785000000001,0.23721313,5.4474945,1
916,7.5398254,0.25277710000000003,5.460662999999999,1
917,7.512298599999999,0.24440002,5.437912,1
918,7.512298599999999,0.20370483,5.455871599999999,1
919,7.530258,0.20848083,5.496567,1
920,7.506317,0.21087646,5.4714355,1
921,7.5398254,0.1905365,5.469040000000001,1
922,7.5099029999999996,0.22045898,5.491791,1
923,7.523071300000001,0.24919128,5.4666443,1
924,7.5099029999999996,0.21087646,5.465454,1
925,7.4955444,0.22644043,5.4474945,1
926,7.506317,0.1845398,5.437912,1
927,7.51709,0.21208191,5.453476,1
928,7.526657000000001,0.22164917,5.473831,1
929,7.51709,0.23602295,5.465454,1
930,7.501525999999999,0.2132721,5.4642487,1
931,7.502716,0.19891357,5.465454,1
932,7.497925,0.22164917,5.4881897,1
933,7.4847565000000005,0.2300415,5.4510803,1
934,7.530258,0.21566772,5.473831,1
935,7.533844,0.21566772,5.500168,1
936,7.5446167,0.2240448,5.475021400000001,1
937,7.512298599999999,0.2348175,5.441513,1
938,7.524261500000001,0.2192688,5.4570620000000005,1
939,7.548217999999999,0.20968628,5.469040000000001,1
940,7.5039215,0.19891357,5.4822083,1
941,7.508713,0.22164917,5.489395,1
942,7.511092999999999,0.22164917,5.481018,1
943,7.521881,0.21447754,5.497772,1
944,7.5398254,0.19651794,5.520508,1
945,7.524261500000001,0.20010376,5.461853,1
946,7.5051117,0.21208191,5.494171,1
947,7.462021000000001,0.20729065,5.5025635,1
948,7.4680023,0.19172668,5.5049589999999995,1
949,7.479980499999999,0.18574524,5.524108999999999,1
950,7.4500427,0.22525024,5.520508,1
951,7.4560394,0.24320984,5.516922,1
952,7.5039215,0.22525024,5.522903400000001,1
953,7.5158844,0.24440002,5.5265045,1
954,7.4727936,0.23960876,5.5265045,1
955,7.487152,0.22764587,5.5324860000000005,1
956,7.5051117,0.2240448,5.5300902999999995,1
957,7.497925,0.23362732,5.485794,1
958,7.496734599999999,0.24200439999999998,5.491791,1
959,7.4823759999999995,0.26475525,5.5049589999999995,1
960,7.508713,0.25875854,5.54805,1
961,7.488357499999999,0.26235962,5.537277,1
962,7.460815400000001,0.21687317,5.552841,1
963,7.497925,0.26235962,5.5516357,1
964,7.4811707,0.23123169,5.5612183,1
965,7.4644165,0.23123169,5.522903400000001,1
966,7.4716034,0.20848083,5.5324860000000005,1
967,7.440475500000001,0.19293213,5.537277,1
968,7.475189,0.17736816,5.494171,1
969,7.494339,0.17497253,5.458267,1
970,7.5386353,0.14863586,5.379257,1
971,7.556595,0.2803192,5.419952400000001,1
972,7.576935000000001,0.29348755,5.4403076,1
973,7.5877075,0.25398254,5.422348,1
974,7.6176452999999995,0.17018127,5.3960114,1
975,7.6056669999999995,0.22045898,5.3768616,1
976,7.556595,0.26594543,5.439117400000001,1
977,7.4716034,0.30065918,5.5324860000000005,1
978,7.43927,0.33418274,5.5911406999999995,1
979,7.398575,0.33059692,5.633041400000001,1
980,7.380615,0.34255979999999997,5.6055145,1
981,7.463211,0.34854126,5.5827637,1
982,7.501525999999999,0.37249756,5.4714355,1
983,7.562576299999999,0.37727356,5.3912354,1
984,7.563766499999999,0.44311523,5.3732758,1
985,7.535049400000001,0.4479065,5.367279,1
986,7.5099029999999996,0.4479065,5.378067,1
987,7.493149000000001,0.41319275,5.3936157,1
988,7.4847565000000005,0.40600586,5.454681400000001,1
989,7.494339,0.34854126,5.491791,1
990,7.51709,0.29826355,5.501358,1
991,7.494339,0.22164917,5.44989,1
992,7.497925,0.19770813,5.500168,1
993,7.523071300000001,0.09596252400000001,5.513336,1
994,7.4955444,0.038497925,5.5265045,1
995,7.488357499999999,0.03491211,5.5468445,1
996,7.512298599999999,0.083984375,5.509735,1
997,7.562576299999999,0.115112305,5.5276947,1
998,7.593704,0.19293213,5.5049589999999995,1
999,7.632003999999999,0.24559021,5.453476,1
1000,7.633209,0.20848083,5.3960114,1
1001,7.675110000000001,0.20729065,5.270324700000001,1
1002,7.6583404999999996,0.12828064,5.2894745,1
1003,7.5948944,0.055252075,5.307434,1
1004,7.556595,0.062438965,5.327774,1
1005,7.5374300000000005,0.15342712,5.375671400000001,1
1006,7.5099029999999996,0.20848083,5.455871599999999,1
1007,7.477585,0.2300415,5.489395,1
1008,7.4320984,0.30903625,5.522903400000001,1
1009,7.436874400000001,0.32341003,5.568405,1
1010,7.476379400000001,0.31982422,5.580368,1
1011,7.4727936,0.35333252,5.54805,1
1012,7.458435000000001,0.36650085,5.5025635,1
1013,7.477585,0.36051940000000005,5.473831,1
1014,7.473984,0.3677063,5.496567,1
1015,7.470397999999999,0.31861877,5.503753700000001,1
1016,7.479980499999999,0.33178709999999995,5.497772,1
1017,7.448852499999999,0.22644043,5.509735,1
1018,7.4727936,0.17616272,5.485794,1
1019,7.4835663,0.12948608,5.520508,1
1020,7.470397999999999,0.091171265,5.5061493,1
1021,7.451248,0.122299194,5.5420685,1
1022,7.43808,0.16299438,5.552841,1
1023,7.423706,0.22764587,5.5863495,1
1024,7.4464570000000005,0.24559021,5.5612183,1
1025,7.470397999999999,0.23123169,5.5779724,1
1026,7.506317,0.26594543,5.5827637,1
1027,7.501525999999999,0.24679565,5.5827637,1
1028,7.5003204,0.19770813,5.556426999999999,1
1029,7.514694,0.21447754,5.524108999999999,1
1030,7.4895477,0.21447754,5.5252989999999995,1
1031,7.5075073,0.1953125,5.5049589999999995,1
1032,7.436874400000001,0.16778564,5.5827637,1
1033,7.4416656,0.1845398,5.5660095,1
1034,7.4895477,0.23362732,5.611496,1
1035,7.5039215,0.25277710000000003,5.5300902999999995,1
1036,7.4416656,0.28988647,5.5121307,1
1037,7.3937836,0.28869629999999996,5.5695953000000005,1
1038,7.3626556,0.26594543,5.636627,1
1039,7.353088400000001,0.26475525,5.6653595,1
1040,7.3997649999999995,0.27911377,5.5851593,1
1041,7.43808,0.23721313,5.5983276,1
1042,7.4452667,0.32341003,5.5660095,1
1043,7.4835663,0.299469,5.5648040000000005,1
1044,7.4811707,0.31263733,5.5265045,1
1045,7.473984,0.29826355,5.579178,1
1046,7.460815400000001,0.3138275,5.573181,1
1047,7.4440612999999995,0.30186462,5.587555,1
1048,7.43808,0.30305479999999996,5.592346,1
1049,7.4452667,0.25517273,5.5983276,1
1050,7.436874400000001,0.19651794,5.603119,1
1051,7.460815400000001,0.17137146,5.54924,1
1052,7.440475500000001,0.19770813,5.571991000000001,1
1053,7.4165344,0.20010376,5.5983276,1
1054,7.415328999999999,0.24320984,5.592346,1
1055,7.4129333,0.24081421,5.595932,1
1056,7.4320984,0.27192688,5.5779724,1
1057,7.423706,0.19770813,5.536072,1
1058,7.475189,0.25875854,5.563614,1
1059,7.4524384,0.23960876,5.595932,1
1060,7.4440612999999995,0.22285461,5.5779724,1
1061,7.435683999999999,0.21566772,5.5695953000000005,1
1062,7.4117429999999995,0.2132721,5.592346,1
1063,7.3901978,0.21806335,5.5983276,1
1064,7.4284973,0.20489502,5.597122,1
1065,7.476379400000001,0.26115417,5.5779724,1
1066,7.43927,0.25637817,5.5420685,1
1067,7.4560394,0.25637817,5.5851593,1
1068,7.4464570000000005,0.27192688,5.583954,1
1069,7.4500427,0.2515869,5.54924,1
1070,7.4560394,0.25637817,5.473831,1
1071,7.5051117,0.21447754,5.5073395,1
1072,7.51828,0.23721313,5.509735,1
1073,7.513489,0.24440002,5.489395,1
1074,7.4955444,0.25875854,5.503753700000001,1
1075,7.5075073,0.2635498,5.5145264,1
1076,7.477585,0.29588318,5.5061493,1
1077,7.4847565000000005,0.28630066,5.513336,1
1078,7.487152,0.26594543,5.481018,1
1079,7.4811707,0.22164917,5.524108999999999,1
1080,7.5075073,0.19412231,5.5061493,1
1081,7.574539,0.17855835,5.473831,1
1082,7.4991302,0.17736816,5.437912,1
1083,7.4716034,0.20130920000000002,5.4869995000000005,1
1084,7.497925,0.22164917,5.5324860000000005,1
1085,7.488357499999999,0.27552795,5.5300902999999995,1
1086,7.4320984,0.27792358,5.495376599999999,1
1087,7.4644165,0.2695465,5.4486847,1
1088,7.477585,0.26715088,5.4989624,1
1089,7.4991302,0.21447754,5.516922,1
1090,7.508713,0.24440002,5.5049589999999995,1
1091,7.5039215,0.24200439999999998,5.5217133,1
1092,7.490753,0.21087646,5.5396730000000005,1
1093,7.502716,0.22883606,5.536072,1
1094,7.488357499999999,0.25637817,5.4989624,1
1095,7.4716034,0.31982422,5.5109406,1
1096,7.476379400000001,0.27671814,5.520508,1
1097,7.4811707,0.24559021,5.54924,1
1098,7.493149000000001,0.22164917,5.5396730000000005,1
1099,7.4991302,0.22644043,5.5145264,1
1100,7.4955444,0.20370483,5.500168,1
1101,7.458435000000001,0.23841858,5.5265045,1
1102,7.442871,0.22764587,5.555237,1
1103,7.4680023,0.22764587,5.522903400000001,1
1104,7.496734599999999,0.24919128,5.516922,1
1105,7.501525999999999,0.23362732,5.484604,1
1106,7.501525999999999,0.20968628,5.516922,1
1107,7.4811707,0.22883606,5.5121307,1
1108,7.458435000000001,0.25875854,5.524108999999999,1
1109,7.453644000000001,0.29109192,5.533676,1
1110,7.43808,0.29826355,5.594742,1
1111,7.4644165,0.28509520000000005,5.5827637,1
1112,7.4452667,0.25756836,5.568405,1
1113,7.4464570000000005,0.23242188,5.5911406999999995,1
1114,7.4524384,0.23242188,5.556426999999999,1
1115,7.4644165,0.21687317,5.54924,1
1116,7.4464570000000005,0.1953125,5.5612183,1
1117,7.426101700000001,0.23960876,5.562408400000001,1
1118,7.458435000000001,0.21087646,5.560013,1
1119,7.485962,0.20370483,5.5695953000000005,1
1120,7.512298599999999,0.20249939,5.54805,1
1121,7.4596252000000005,0.19172668,5.5193176,1
1122,7.436874400000001,0.22525024,5.5660095,1
1123,7.4680023,0.24798584,5.5576324,1
1124,7.430892999999999,0.2815094,5.5695953000000005,1
1125,7.415328999999999,0.29588318,5.633041400000001,1
1126,7.3734283,0.3138275,5.6138916,1
1127,7.3865967,0.32699585,5.631851,1
1128,7.463211,0.23602295,5.5815735,1
1129,7.477585,0.1953125,5.579178,1
1130,7.4596252000000005,0.15342712,5.5432587,1
1131,7.4572296,0.1953125,5.579178,1
1132,7.4500427,0.17497253,5.5061493,1
1133,7.493149000000001,0.24320984,5.556426999999999,1
1134,7.454834,0.32341003,5.5516357,1
1135,7.409347500000001,0.32580566,5.562408400000001,1
1136,7.415328999999999,0.29588318,5.5851593,1
1137,7.3937836,0.33418274,5.580368,1
1138,7.392593400000001,0.32341003,5.5695953000000005,1
1139,7.4332886,0.21208191,5.6079099999999995,1
1140,7.4344788,0.16778564,5.580368,1
1141,7.475189,0.112716675,5.5540314,1
1142,7.5003204,0.13665771,5.540863,1
1143,7.541030999999999,0.1953125,5.540863,1
1144,7.478775,0.20729065,5.552841,1
1145,7.4344788,0.3282013,5.5851593,1
1146,7.403366,0.37608337,5.589950599999999,1
1147,7.367447,0.36410522,5.6067047,1
1148,7.387802000000001,0.39164734,5.594742,1
1149,7.4129333,0.29109192,5.6294556,1
1150,7.448852499999999,0.22525024,5.575577,1
1151,7.501525999999999,0.1725769,5.5935364000000005,1
1152,7.4991302,0.1797638,5.538467400000001,1
1153,7.447647,0.14624023,5.5396730000000005,1
1154,7.426101700000001,0.18214417,5.5289,1
1155,7.454834,0.20489502,5.5276947,1
1156,7.460815400000001,0.22285461,5.538467400000001,1
1157,7.4464570000000005,0.26235962,5.5815735,1
1158,7.4955444,0.26834106,5.544464,1
1159,7.477585,0.27671814,5.597122,1
1160,7.488357499999999,0.2635498,5.5851593,1
1161,7.423706,0.2515869,5.576782,1
1162,7.3854065,0.25398254,5.571991000000001,1
1163,7.356674000000001,0.2300415,5.6462097,1
1164,7.3901978,0.25038147,5.6402282999999995,1
1165,7.394989,0.25398254,5.6246643,1
1166,7.410537700000001,0.2695465,5.5935364000000005,1
1167,7.435683999999999,0.25875854,5.589950599999999,1
1168,7.442871,0.23841858,5.6210785,1
1169,7.454834,0.259964,5.567199700000001,1
1170,7.400970500000001,0.23721313,5.587555,1
1171,7.414139,0.2803192,5.615082,1
1172,7.436874400000001,0.25038147,5.6091003,1
1173,7.404556299999999,0.25277710000000003,5.6067047,1
1174,7.403366,0.21687317,5.599518,1
1175,7.4332886,0.26235962,5.5660095,1
1176,7.415328999999999,0.22045898,5.6091003,1
1177,7.4129333,0.26834106,5.655792,1
1178,7.3997649999999995,0.25875854,5.6246643,1
1179,7.426101700000001,0.29467773,5.6402282999999995,1
1180,7.400970500000001,0.25875854,5.652191,1
1181,7.4213104,0.25637817,5.592346,1
1182,7.427307000000001,0.24559021,5.6138916,1
1183,7.415328999999999,0.2635498,5.615082,1
1184,7.4452667,0.25398254,5.603119,1
1185,7.4452667,0.23362732,5.5707855,1
1186,7.453644000000001,0.23123169,5.594742,1
1187,7.4117429999999995,0.16897583,5.576782,1
1188,7.4213104,0.20489502,5.54924,1
1189,7.440475500000001,0.20249939,5.54924,1
1190,7.453644000000001,0.24559021,5.594742,1
1191,7.435683999999999,0.24919128,5.5935364000000005,1
1192,7.426101700000001,0.2803192,5.595932,1
1193,7.476379400000001,0.27671814,5.567199700000001,1
1194,7.430892999999999,0.2348175,5.576782,1
1195,7.470397999999999,0.24081421,5.589950599999999,1
1196,7.4560394,0.23242188,5.562408400000001,1
1197,7.458435000000001,0.20130920000000002,5.5456543,1
1198,7.4823759999999995,0.1953125,5.5348816,1
1199,7.4344788,0.18095398,5.5648040000000005,1
1200,7.447647,0.20010376,5.588744999999999,1
1201,7.4955444,0.20610046,5.615082,1
1202,7.497925,0.21806335,5.5576324,1
1203,7.43808,0.21806335,5.531296,1
1204,7.404556299999999,0.27911377,5.558822599999999,1
1205,7.400970500000001,0.26594543,5.5935364000000005,1
1206,7.4057617,0.29467773,5.618683,1
1207,7.4320984,0.30784607,5.556426999999999,1
1208,7.4464570000000005,0.28630066,5.562408400000001,1
1209,7.494339,0.24679565,5.5540314,1
1210,7.494339,0.24200439999999998,5.537277,1
1211,7.435683999999999,0.17736816,5.540863,1
1212,7.454834,0.18214417,5.583954,1
1213,7.429702799999999,0.18214417,5.6067047,1
1214,7.435683999999999,0.20489502,5.6007233,1
1215,7.493149000000001,0.2635498,5.575577,1
1216,7.478775,0.27671814,5.573181,1
1217,7.440475500000001,0.26594543,5.580368,1
1218,7.427307000000001,0.28509520000000005,5.573181,1
1219,7.43927,0.24440002,5.616287000000001,1
1220,7.426101700000001,0.2348175,5.5648040000000005,1
1221,7.4416656,0.19770813,5.597122,1
1222,7.469208,0.20968628,5.5695953000000005,1
1223,7.454834,0.20968628,5.575577,1
1224,7.4572296,0.2300415,5.583954,1
1225,7.451248,0.22764587,5.558822599999999,1
1226,7.436874400000001,0.24320984,5.562408400000001,1
1227,7.4464570000000005,0.25756836,5.588744999999999,1
1228,7.442871,0.22285461,5.5983276,1
1229,7.435683999999999,0.20848083,5.6019135,1
1230,7.462021000000001,0.22764587,5.595932,1
1231,7.453644000000001,0.24320984,5.6102905,1
1232,7.4572296,0.2635498,5.5743865999999995,1
1233,7.448852499999999,0.30665588,5.5935364000000005,1
1234,7.4189300000000005,0.30305479999999996,5.579178,1
1235,7.392593400000001,0.26475525,5.612686,1
1236,7.423706,0.24919128,5.616287000000001,1
1237,7.415328999999999,0.19172668,5.611496,1
1238,7.448852499999999,0.18214417,5.6007233,1
1239,7.4524384,0.21208191,5.6354370000000005,1
1240,7.463211,0.18933105,5.5648040000000005,1
1241,7.394989,0.2240448,5.604309,1
1242,7.3782195999999995,0.2515869,5.6210785,1
1243,7.3782195999999995,0.23721313,5.618683,1
1244,7.3901978,0.2348175,5.6402282999999995,1
1245,7.366256699999999,0.26475525,5.6246643,1
1246,7.392593400000001,0.27552795,5.660568,1
1247,7.3782195999999995,0.2815094,5.651001,1
1248,7.410537700000001,0.24919128,5.616287000000001,1
1249,7.392593400000001,0.23602295,5.654587,1
1250,7.4117429999999995,0.22285461,5.6462097,1
1251,7.4284973,0.22285461,5.674942,1
1252,7.404556299999999,0.24679565,5.671355999999999,1
1253,7.408142,0.25637817,5.6474,1
1254,7.366256699999999,0.28749084,5.652191,1
1255,7.3973694000000005,0.26594543,5.6773375999999995,1
1256,7.4021606,0.2635498,5.6701508,1
1257,7.3973694000000005,0.26475525,5.674942,1
1258,7.398575,0.23123169,5.643814,1
1259,7.4057617,0.2192688,5.637832599999999,1
1260,7.415328999999999,0.20130920000000002,5.634247,1
1261,7.372238,0.20729065,5.618683,1
1262,7.4021606,0.20249939,5.6354370000000005,1
1263,7.3818207,0.19172668,5.6773375999999995,1
1264,7.409347500000001,0.20489502,5.634247,1
1265,7.410537700000001,0.23721313,5.6641693,1
1266,7.3889923,0.26594543,5.666565,1
1267,7.3854065,0.23960876,5.660568,1
1268,7.372238,0.24440002,5.652191,1
1269,7.379425,0.24440002,5.6701508,1
1270,7.379425,0.2192688,5.6474,1
1271,7.3865967,0.2695465,5.682129,1
1272,7.409347500000001,0.259964,5.6497955,1
1273,7.4320984,0.25038147,5.6474,1
1274,7.406952,0.24081421,5.6234589999999995,1
1275,7.398575,0.2348175,5.653396599999999,1
1276,7.3746339999999995,0.22644043,5.6617737,1
1277,7.3901978,0.27552795,5.662964,1
1278,7.349487299999999,0.25637817,5.662964,1
1279,7.404556299999999,0.25398254,5.660568,1
1280,7.422516000000001,0.2240448,5.671355999999999,1
1281,7.435683999999999,0.25756836,5.6174774,1
1282,7.403366,0.25038147,5.6067047,1
1283,7.354278599999999,0.22164917,5.639023,1
1284,7.375824000000001,0.19412231,5.686905,1
1285,7.365051299999999,0.18693542,5.678528,1
1286,7.3770294000000005,0.20249939,5.6641693,1
1287,7.372238,0.28509520000000005,5.6462097,1
1288,7.3889923,0.25637817,5.6354370000000005,1
1289,7.4057617,0.26475525,5.652191,1
1290,7.367447,0.24440002,5.655792,1
1291,7.387802000000001,0.23721313,5.7060699999999995,1
1292,7.380615,0.21208191,5.6857147,1
1293,7.3854065,0.22883606,5.671355999999999,1
1294,7.375824000000001,0.22525024,5.6497955,1
1295,7.375824000000001,0.21447754,5.6402282999999995,1
1296,7.3770294000000005,0.22164917,5.6497955,1
1297,7.406952,0.15701294,5.7120514,1
1298,7.3818207,0.20130920000000002,5.662964,1
1299,7.384200999999999,0.2240448,5.6497955,1
1300,7.3865967,0.2707367,5.6641693,1
1301,7.3626556,0.30065918,5.636627,1
1302,7.4021606,0.30784607,5.653396599999999,1
1303,7.403366,0.25875854,5.6462097,1
1304,7.379425,0.2803192,5.654587,1
1305,7.392593400000001,0.24919128,5.671355999999999,1
1306,7.380615,0.2300415,5.660568,1
1307,7.367447,0.21806335,5.660568,1
1308,7.3782195999999995,0.20968628,5.6462097,1
1309,7.3997649999999995,0.21806335,5.691696,1
1310,7.384200999999999,0.22525024,5.654587,1
1311,7.383011,0.26115417,5.6450195,1
1312,7.4189300000000005,0.2300415,5.636627,1
1313,7.387802000000001,0.25277710000000003,5.643814,1
1314,7.394989,0.2348175,5.643814,1
1315,7.4165344,0.2240448,5.6689606,1
1316,7.4500427,0.2300415,5.5983276,1
1317,7.3901978,0.21087646,5.6019135,1
1318,7.3901978,0.23960876,5.618683,1
1319,7.366256699999999,0.2815094,5.6234589999999995,1
1320,7.4249115,0.31263733,5.658188,1
1321,7.4284973,0.3222046,5.6067047,1
1322,7.398575,0.28509520000000005,5.6486053,1
1323,7.408142,0.29109192,5.634247,1
1324,7.4165344,0.24919128,5.6677550000000005,1
1325,7.4560394,0.23721313,5.62825,1
1326,7.3770294000000005,0.23960876,5.674942,1
1327,7.3423157,0.24919128,5.7288055,1
1328,7.314773599999999,0.23721313,5.710861,1
1329,7.4117429999999995,0.23602295,5.6019135,1
1330,7.4847565000000005,0.21208191,5.6007233,1
1331,7.5099029999999996,0.26715088,5.5660095,1
1332,7.460815400000001,0.34616090000000005,5.568405,1
1333,7.4500427,0.35693359999999996,5.616287000000001,1
1334,7.383011,0.338974,5.6929016,1
1335,7.3746339999999995,0.38087463,5.6857147,1
1336,7.3291473,0.37010193,5.761139,1
1337,7.35907,0.31861877,5.6929016,1
1338,7.414139,0.28630066,5.6857147,1
1339,7.409347500000001,0.19293213,5.678528,1
1340,7.406952,0.13426208,5.654587,1
1341,7.371032700000001,0.11869812,5.678528,1
1342,7.335128999999999,0.100753784,5.619873,1
1343,7.367447,0.088775635,5.583954,1
1344,7.4129333,0.09236145,5.555237,1
1345,7.533844,0.1845398,5.651001,1
1346,7.5398254,0.28509520000000005,5.639023,1
1347,7.43808,0.31143188,5.5863495,1
1348,7.335128999999999,0.4012146,5.6306458,1
1349,7.224991,0.44192505,5.730011,1
1350,7.154358,0.48622129999999997,5.7754974,1
1351,7.236969,0.52931213,5.817398000000001,1
1352,7.3686523,0.41319275,5.6881104,1
1353,7.4835663,0.28988647,5.592346,1
1354,7.552994,0.21208191,5.4822083,1
1355,7.5314483999999995,0.17018127,5.513336,1
1356,7.4847565000000005,0.23721313,5.516922,1
1357,7.451248,0.2348175,5.5324860000000005,1
1358,7.4284973,0.24081421,5.485794,1
1359,7.470397999999999,0.19891357,5.477417,1
1360,7.453644000000001,0.23841858,5.477417,1
1361,7.447647,0.25398254,5.494171,1
1362,7.485962,0.26715088,5.552841,1
1363,7.5278625,0.37487793,5.533676,1
1364,7.5709534,0.35693359999999996,5.536072,1
1365,7.5541990000000006,0.37249756,5.446289,1
1366,7.523071300000001,0.25875854,5.509735,1
1367,7.562576299999999,0.25277710000000003,5.567199700000001,1
1368,7.506317,0.23841858,5.544464,1
1369,7.4440612999999995,0.2695465,5.515732,1
1370,7.391388,0.24919128,5.5456543,1
1371,7.400970500000001,0.25637817,5.5863495,1
1372,7.4416656,0.27792358,5.6055145,1
1373,7.440475500000001,0.28988647,5.62825,1
1374,7.453644000000001,0.32699585,5.5504456,1
1375,7.435683999999999,0.35333252,5.515732,1
1376,7.469208,0.36650085,5.533676,1
1377,7.442871,0.31742859999999995,5.503753700000001,1
1378,7.4332886,0.32460022,5.494171,1
1379,7.4344788,0.35693359999999996,5.4833984000000004,1
1380,7.435683999999999,0.31503296,5.560013,1
1381,7.4895477,0.30186462,5.552841,1
1382,7.460815400000001,0.27432249999999997,5.5252989999999995,1
1383,7.4452667,0.26594543,5.5300902999999995,1
1384,7.448852499999999,0.29467773,5.5983276,1
1385,7.448852499999999,0.29588318,5.5827637,1
1386,7.392593400000001,0.31742859999999995,5.5743865999999995,1
1387,7.4117429999999995,0.30305479999999996,5.571991000000001,1
1388,7.453644000000001,0.3102417,5.5420685,1
1389,7.536239599999999,0.22644043,5.580368,1
1390,7.5470123,0.1845398,5.4630585,1
1391,7.5290527,0.20010376,5.4331207,1
1392,7.5434265,0.112716675,5.394821,1
1393,7.616439999999999,0.17137146,5.279892,1
1394,7.663131699999999,0.19651794,5.2224426,1
1395,7.749328599999999,0.27552795,5.2463837,1
1396,7.775665299999999,0.31622314,5.2559510000000005,1
1397,7.69545,0.32101440000000003,5.2559510000000005,1
1398,7.6715089999999995,0.34136963,5.236801,1
1399,7.611664,0.34016418,5.3337708,1
1400,7.5829315,0.32341003,5.3768616,1
1401,7.524261500000001,0.259964,5.4355164,1
1402,7.535049400000001,0.23841858,5.363693,1
1403,7.550598,0.20610046,5.394821,1
1404,7.5601807,0.22285461,5.3936157,1
1405,7.5422210000000005,0.2348175,5.367279,1
1406,7.5374300000000005,0.27792358,5.382843,1
1407,7.566161999999999,0.26715088,5.430725,1
1408,7.513489,0.21687317,5.412781,1
1409,7.569763000000001,0.19172668,5.3972169999999995,1
1410,7.5865173,0.17497253,5.3960114,1
1411,7.610458400000001,0.22164917,5.362503,1
1412,7.616439999999999,0.20370483,5.3960114,1
1413,7.5865173,0.28390503,5.3876343,1
1414,7.511092999999999,0.23960876,5.501358,1
1415,7.524261500000001,0.29707336,5.419952400000001,1
1416,7.524261500000001,0.27671814,5.410385,1
1417,7.550598,0.29588318,5.418762,1
1418,7.588913000000001,0.28271484,5.417557,1
1419,7.610458400000001,0.26115417,5.3840485000000005,1
1420,7.663131699999999,0.24679565,5.3924255,1
1421,7.588913000000001,0.20968628,5.4163666,1
1422,7.6080627000000005,0.1725769,5.398407,1
1423,7.5314483999999995,0.19412231,5.430725,1
1424,7.478775,0.21087646,5.3804474,1
1425,7.493149000000001,0.20010376,5.350525,1
1426,7.545822,0.17137146,5.3912354,1
1427,7.604477,0.1845398,5.3720703,1
1428,7.6655273,0.20968628,5.3648987,1
1429,7.69545,0.23721313,5.402008,1
1430,7.6391907,0.299469,5.3888397,1
1431,7.532653999999999,0.3138275,5.3972169999999995,1
1432,7.476379400000001,0.35453796,5.407989499999999,1
1433,7.4500427,0.34136963,5.4630585,1
1434,7.4464570000000005,0.33776855,5.453476,1
1435,7.506317,0.31861877,5.4510803,1
1436,7.519485499999999,0.3138275,5.484604,1
1437,7.5709534,0.2815094,5.4570620000000005,1
1438,7.6032715,0.23123169,5.3996124000000005,1
1439,7.597289999999999,0.23242188,5.410385,1
1440,7.574539,0.24440002,5.410385,1
1441,7.563766499999999,0.23721313,5.422348,1
1442,7.5709534,0.22045898,5.3732758,1
1443,7.580536,0.22644043,5.3457336,1
1444,7.5518035999999995,0.18814087,5.3888397,1
1445,7.521881,0.16778564,5.410385,1
1446,7.524261500000001,0.14743042,5.44989,1
1447,7.557785000000001,0.14624023,5.4355164,1
1448,7.5685577,0.16299438,5.4474945,1
1449,7.612854,0.17137146,5.4008026,1
1450,7.578140299999999,0.24320984,5.382843,1
1451,7.525467,0.25277710000000003,5.367279,1
1452,7.550598,0.2348175,5.3960114,1
1453,7.5541990000000006,0.18693542,5.418762,1
1454,7.579330400000001,0.22644043,5.4151764,1
1455,7.5709534,0.29826355,5.421158,1
1456,7.532653999999999,0.37129209999999996,5.4151764,1
1457,7.4895477,0.43354797,5.405594000000001,1
1458,7.491943400000001,0.41438293,5.4510803,1
1459,7.475189,0.35693359999999996,5.437912,1
1460,7.532653999999999,0.4000244,5.3732758,1
1461,7.6308136,0.40361023,5.3265839999999995,1
1462,7.6475677,0.3282013,5.367279,1
1463,7.567367599999999,0.22045898,5.421158,1
1464,7.513489,0.10194397,5.39003,1
1465,7.579330400000001,-0.02973938,5.361297599999999,1
1466,7.6152496,0.0025787354,5.362503,1
1467,7.578140299999999,0.098358154,5.3265839999999995,1
1468,7.576935000000001,0.17616272,5.3565062999999995,1
1469,7.5206757,0.27432249999999997,5.3804474,1
1470,7.513489,0.26475525,5.437912,1
1471,7.567367599999999,0.2803192,5.362503,1
1472,7.629608,0.2803192,5.302643,1
1473,7.593704,0.26715088,5.446289,1
1474,7.5685577,0.29707336,5.473831,1
1475,7.550598,0.31742859999999995,5.496567,1
1476,7.548217999999999,0.33537292,5.4115753,1
1477,7.6080627000000005,0.21806335,5.3241879999999995,1
1478,7.6391907,0.055252075,5.3648987,1
1479,7.6583404999999996,0.031311035,5.3601074,1
1480,7.67749,0.112716675,5.299057,1
1481,7.669113,0.20489502,5.3134155,1
1482,7.614044,0.33776855,5.259551999999999,1
1483,7.597289999999999,0.4012146,5.2511597000000005,1
1484,7.552994,0.39283752,5.412781,1
1485,7.496734599999999,0.33059692,5.441513,1
1486,7.5075073,0.3497467,5.485794,1
1487,7.5099029999999996,0.33299255,5.472625700000001,1
1488,7.545822,0.33059692,5.5252989999999995,1
1489,7.569763000000001,0.31861877,5.490585299999999,1
1490,7.588913000000001,0.27792358,5.3876343,1
1491,7.5829315,0.18693542,5.407989499999999,1
1492,7.572159,0.14982605,5.381653,1
1493,7.4895477,0.12109375,5.3325653,1
1494,7.5099029999999996,0.09596252400000001,5.374466,1
1495,7.567367599999999,0.0756073,5.386444,1
1496,7.584121700000001,0.14863586,5.367279,1
1497,7.575744599999999,0.1330719,5.410385,1
1498,7.585327,0.1845398,5.378067,1
1499,7.550598,0.25038147,5.402008,1
1500,7.545822,0.37010193,5.4438934,1
1501,7.563766499999999,0.4000244,5.3888397,1
1502,7.51828,0.4191742,5.430725,1
1503,7.5470123,0.42037964,5.461853,1
1504,7.573349,0.41438293,5.496567,1
1505,7.549408000000001,0.35333252,5.4355164,1
1506,7.513489,0.33178709999999995,5.461853,1
1507,7.5075073,0.25756836,5.460662999999999,1
1508,7.501525999999999,0.22644043,5.4438934,1
1509,7.5278625,0.21208191,5.437912,1
1510,7.524261500000001,0.21087646,5.437912,1
1511,7.519485499999999,0.23123169,5.4438934,1
1512,7.5075073,0.25637817,5.4271392999999994,1
1513,7.51709,0.25038147,5.4474945,1
1514,7.535049400000001,0.24081421,5.3876343,1
1515,7.569763000000001,0.23123169,5.3996124000000005,1
1516,7.5948944,0.20370483,5.412781,1
1517,7.584121700000001,0.18214417,5.452286,1
1518,7.5398254,0.1953125,5.4043884,1
1519,7.5051117,0.22644043,5.465454,1
1520,7.51709,0.22045898,5.4355164,1
1521,7.512298599999999,0.2695465,5.472625700000001,1
1522,7.497925,0.26594543,5.4786224,1
1523,7.485962,0.27671814,5.489395,1
1524,7.502716,0.29707336,5.500168,1
1525,7.5099029999999996,0.37010193,5.4666443,1
1526,7.5553894,0.34495544,5.4798126,1
1527,7.535049400000001,0.29826355,5.481018,1
1528,7.5290527,0.26834106,5.4570620000000005,1
1529,7.5553894,0.23841858,5.412781,1
1530,7.5446167,0.2192688,5.439117400000001,1
1531,7.519485499999999,0.20968628,5.423553500000001,1
1532,7.5398254,0.1725769,5.460662999999999,1
1533,7.548217999999999,0.17376709,5.4438934,1
1534,7.5877075,0.22764587,5.441513,1
1535,7.604477,0.2515869,5.407989499999999,1
1536,7.5877075,0.2922821,5.429535,1
1537,7.5398254,0.28749084,5.394821,1
1538,7.4955444,0.27911377,5.425949,1
1539,7.530258,0.2515869,5.441513,1
1540,7.524261500000001,0.2240448,5.4486847,1
1541,7.519485499999999,0.25517273,5.491791,1
1542,7.488357499999999,0.26475525,5.4786224,1
1543,7.487152,0.29826355,5.425949,1
1544,7.533844,0.31143188,5.465454,1
1545,7.566161999999999,0.28988647,5.3960114,1
1546,7.574539,0.25038147,5.3924255,1
1547,7.592499,0.26834106,5.3996124000000005,1
1548,7.585327,0.27313232,5.422348,1
1549,7.533844,0.26475525,5.406784,1
1550,7.549408000000001,0.26235962,5.3684845,1
1551,7.574539,0.24919128,5.361297599999999,1
1552,7.561386,0.24440002,5.4355164,1
1553,7.5553894,0.22285461,5.437912,1
1554,7.5913086,0.23960876,5.423553500000001,1
1555,7.561386,0.21208191,5.4367220000000005,1
1556,7.5601807,0.22045898,5.430725,1
1557,7.5470123,0.24919128,5.439117400000001,1
1558,7.477585,0.25756836,5.419952400000001,1
1559,7.5434265,0.23362732,5.452286,1
1560,7.521881,0.26594543,5.3972169999999995,1
1561,7.5278625,0.28630066,5.4043884,1
1562,7.51709,0.30186462,5.4714355,1
1563,7.4991302,0.30065918,5.4786224,1
1564,7.501525999999999,0.30665588,5.455871599999999,1
1565,7.521881,0.26235962,5.4570620000000005,1
1566,7.51709,0.26475525,5.4486847,1
1567,7.5099029999999996,0.25875854,5.4929809999999994,1
1568,7.521881,0.26594543,5.4714355,1
1569,7.5518035999999995,0.2803192,5.4367220000000005,1
1570,7.566161999999999,0.26115417,5.465454,1
1571,7.5709534,0.27792358,5.4833984000000004,1
1572,7.526657000000001,0.24440002,5.4427031999999995,1
1573,7.5039215,0.24440002,5.4510803,1
1574,7.521881,0.25875854,5.413971,1
1575,7.501525999999999,0.25398254,5.481018,1
1576,7.4847565000000005,0.259964,5.4678497,1
1577,7.519485499999999,0.24200439999999998,5.515732,1
1578,7.502716,0.2707367,5.4869995000000005,1
1579,7.557785000000001,0.25277710000000003,5.4486847,1
1580,7.508713,0.30426025,5.3840485000000005,1
1581,7.493149000000001,0.26834106,5.508545,1
1582,7.4727936,0.26115417,5.531296,1
1583,7.477585,0.24919128,5.5217133,1
1584,7.4560394,0.2240448,5.4786224,1
1585,7.501525999999999,0.27792358,5.477417,1
1586,7.526657000000001,0.27911377,5.472625700000001,1
1587,7.4811707,0.25875854,5.485794,1
1588,7.5051117,0.21806335,5.4714355,1
1589,7.494339,0.26594543,5.4881897,1
1590,7.506317,0.23841858,5.501358,1
1591,7.5278625,0.23242188,5.501358,1
1592,7.521881,0.28749084,5.476227,1
1593,7.514694,0.29707336,5.4929809999999994,1
1594,7.5206757,0.27911377,5.469040000000001,1
1595,7.488357499999999,0.27671814,5.522903400000001,1
1596,7.488357499999999,0.31143188,5.494171,1
1597,7.524261500000001,0.24919128,5.485794,1
1598,7.512298599999999,0.23362732,5.4786224,1
1599,7.508713,0.23960876,5.47023,1
1600,7.497925,0.24559021,5.496567,1
1601,7.496734599999999,0.22045898,5.522903400000001,1
1602,7.5051117,0.20968628,5.54805,1
1603,7.494339,0.29467773,5.490585299999999,1
1604,7.4680023,0.32101440000000003,5.516922,1
1605,7.463211,0.30665588,5.533676,1
1606,7.469208,0.33776855,5.516922,1
1607,7.473984,0.28630066,5.5073395,1
1608,7.4991302,0.27911377,5.5456543,1
1609,7.473984,0.19891357,5.490585299999999,1
1610,7.5051117,0.19412231,5.469040000000001,1
1611,7.512298599999999,0.16059875,5.485794,1
1612,7.502716,0.22525024,5.508545,1
1613,7.5099029999999996,0.22764587,5.5109406,1
1614,7.51828,0.25517273,5.5049589999999995,1
1615,7.491943400000001,0.29348755,5.5324860000000005,1
1616,7.479980499999999,0.31263733,5.5109406,1
1617,7.494339,0.31503296,5.501358,1
1618,7.4716034,0.2635498,5.4881897,1
1619,7.470397999999999,0.2707367,5.531296,1
1620,7.473984,0.25277710000000003,5.5252989999999995,1
1621,7.497925,0.2515869,5.5252989999999995,1
1622,7.5003204,0.2635498,5.508545,1
1623,7.511092999999999,0.24919128,5.455871599999999,1
1624,7.466811999999999,0.24679565,5.494171,1
1625,7.463211,0.2240448,5.5217133,1
1626,7.4823759999999995,0.24679565,5.5193176,1
1627,7.469208,0.25398254,5.509735,1
1628,7.447647,0.2815094,5.5707855,1
1629,7.435683999999999,0.29467773,5.537277,1
1630,7.4895477,0.31622314,5.5073395,1
1631,7.501525999999999,0.27671814,5.489395,1
1632,7.5039215,0.23841858,5.490585299999999,1
1633,7.502716,0.20370483,5.5456543,1
1634,7.506317,0.22644043,5.5073395,1
1635,7.4991302,0.2192688,5.5145264,1
1636,7.493149000000001,0.2695465,5.509735,1
1637,7.5039215,0.26594543,5.515732,1
1638,7.476379400000001,0.24798584,5.5049589999999995,1
1639,7.4823759999999995,0.24320984,5.495376599999999,1
1640,7.4727936,0.21447754,5.552841,1
1641,7.470397999999999,0.2707367,5.5145264,1
1642,7.5158844,0.28509520000000005,5.472625700000001,1
1643,7.473984,0.2707367,5.5121307,1
1644,7.485962,0.27792358,5.5396730000000005,1
1645,7.4955444,0.27792358,5.472625700000001,1
1646,7.4847565000000005,0.24440002,5.4989624,1
1647,7.4835663,0.22644043,5.560013,1
1648,7.4596252000000005,0.23362732,5.536072,1
1649,7.496734599999999,0.24081421,5.484604,1
1650,7.493149000000001,0.23123169,5.524108999999999,1
1651,7.466811999999999,0.26475525,5.5324860000000005,1
1652,7.462021000000001,0.25398254,5.5516357,1
1653,7.470397999999999,0.25517273,5.518127400000001,1
1654,7.4835663,0.28509520000000005,5.520508,1
1655,7.514694,0.29707336,5.518127400000001,1
1656,7.4823759999999995,0.26235962,5.5276947,1
1657,7.485962,0.27552795,5.509735,1
1658,7.477585,0.26115417,5.5265045,1
1659,7.513489,0.28390503,5.5432587,1
1660,7.477585,0.2300415,5.5109406,1
1661,7.476379400000001,0.23841858,5.516922,1
1662,7.473984,0.2240448,5.4869995000000005,1
1663,7.490753,0.24679565,5.495376599999999,1
1664,7.485962,0.2695465,5.5612183,1
1665,7.5039215,0.2803192,5.575577,1
1666,7.4895477,0.27552795,5.5289,1
1667,7.442871,0.26115417,5.494171,1
1668,7.4680023,0.26715088,5.501358,1
1669,7.458435000000001,0.22883606,5.5265045,1
1670,7.4560394,0.25517273,5.522903400000001,1
1671,7.458435000000001,0.24081421,5.4714355,1
1672,7.4835663,0.22045898,5.508545,1
1673,7.4811707,0.20848083,5.485794,1
1674,7.4596252000000005,0.15820313,5.4881897,1
1675,7.4847565000000005,0.1618042,5.495376599999999,1
1676,7.4680023,0.16539001,5.398407,1
1677,7.4680023,0.18095398,5.429535,1
1678,7.525467,0.17376709,5.445099,1
1679,7.602081299999999,0.25277710000000003,5.407989499999999,1
1680,7.578140299999999,0.33657837,5.476227,1
1681,7.5099029999999996,0.38685608,5.5049589999999995,1
1682,7.4452667,0.44911194,5.5145264,1
1683,7.3746339999999995,0.44551086,5.6055145,1
1684,7.4129333,0.4072113,5.603119,1
1685,7.476379400000001,0.3964386,5.571991000000001,1
1686,7.556595,0.41198729999999995,5.537277,1
1687,7.5996857,0.42156982,5.497772,1
1688,7.5865173,0.41198729999999995,5.4666443,1
1689,7.6176452999999995,0.29348755,5.405594000000001,1
1690,7.597289999999999,0.14982605,5.3565062999999995,1
1691,7.6248320000000005,0.055252075,5.319397,1
1692,7.6248320000000005,-0.0021972656,5.270324700000001,1
1693,7.6391907,-0.009384155,5.314621,1
1694,7.6032715,0.021743774,5.3852386,1
1695,7.5434265,0.081588745,5.446289,1
1696,7.4991302,0.19172668,5.453476,1
1697,7.5051117,0.28988647,5.413971,1
1698,7.5039215,0.2803192,5.3840485000000005,1
1699,7.512298599999999,0.33657837,5.386444,1
1700,7.4835663,0.28869629999999996,5.460662999999999,1
1701,7.491943400000001,0.24200439999999998,5.5707855,1
1702,7.5099029999999996,0.2635498,5.619873,1
1703,7.572159,0.30545044,5.575577,1
1704,7.51709,0.41677856,5.540863,1
1705,7.460815400000001,0.42156982,5.4594574,1
1706,7.475189,0.37249756,5.4642487,1
1707,7.4644165,0.25277710000000003,5.412781,1
1708,7.519485499999999,0.08279419,5.3960114,1
1709,7.572159,0.008575439,5.418762,1
1710,7.606872599999999,-0.10395813,5.3972169999999995,1
1711,7.628417999999999,-0.14825439999999998,5.4031982,1
1712,7.6080627000000005,-0.07641601599999999,5.4151764,1
1713,7.581726,0.064834595,5.3996124000000005,1
1714,7.541030999999999,0.18095398,5.3804474,1
1715,7.511092999999999,0.23841858,5.461853,1
1716,7.4596252000000005,0.33418274,5.460662999999999,1
1717,7.462021000000001,0.35693359999999996,5.515732,1
1718,7.4955444,0.31982422,5.5289,1
1719,7.496734599999999,0.33178709999999995,5.501358,1
1720,7.491943400000001,0.3509369,5.5420685,1
1721,7.4440612999999995,0.30545044,5.588744999999999,1
1722,7.478775,0.32460022,5.567199700000001,1
1723,7.488357499999999,0.30665588,5.54805,1
1724,7.526657000000001,0.27671814,5.5276947,1
1725,7.4656066999999995,0.2348175,5.503753700000001,1
1726,7.4644165,0.23602295,5.4869995000000005,1
1727,7.478775,0.22285461,5.475021400000001,1
1728,7.4716034,0.18933105,5.4833984000000004,1
1729,7.5039215,0.19651794,5.4822083,1
1730,7.4895477,0.15701294,5.5300902999999995,1
1731,7.506317,0.19293213,5.491791,1
1732,7.511092999999999,0.23721313,5.469040000000001,1
1733,7.493149000000001,0.24919128,5.522903400000001,1
1734,7.494339,0.23123169,5.508545,1
1735,7.476379400000001,0.18814087,5.4833984000000004,1
1736,7.487152,0.16539001,5.533676,1
1737,7.469208,0.14144897,5.5061493,1
1738,7.477585,0.17137146,5.490585299999999,1
1739,7.460815400000001,0.18933105,5.490585299999999,1
1740,7.4644165,0.2515869,5.5396730000000005,1
1741,7.466811999999999,0.2803192,5.5025635,1
1742,7.521881,0.27552795,5.513336,1
1743,7.5099029999999996,0.27192688,5.494171,1
1744,7.506317,0.23362732,5.508545,1
1745,7.490753,0.25038147,5.5432587,1
1746,7.506317,0.25038147,5.495376599999999,1
1747,7.4452667,0.26115417,5.4929809999999994,1
1748,7.476379400000001,0.27313232,5.5049589999999995,1
1749,7.502716,0.23362732,5.544464,1
1750,7.4955444,0.22285461,5.560013,1
1751,7.533844,0.24919128,5.4642487,1
1752,7.5099029999999996,0.18334961,5.497772,1
1753,7.490753,0.20729065,5.5145264,1
1754,7.470397999999999,0.21087646,5.515732,1
1755,7.453644000000001,0.24081421,5.5265045,1
1756,7.477585,0.20249939,5.509735,1
1757,7.511092999999999,0.26115417,5.495376599999999,1
1758,7.490753,0.2132721,5.455871599999999,1
1759,7.497925,0.18214417,5.5061493,1
1760,7.5099029999999996,0.12469482400000001,5.531296,1
1761,7.5386353,0.10433959999999999,5.5420685,1
1762,7.5541990000000006,0.15461731,5.5504456,1
1763,7.51709,0.20729065,5.5217133,1
1764,7.488357499999999,0.24440002,5.518127400000001,1
1765,7.476379400000001,0.30065918,5.508545,1
1766,7.494339,0.31263733,5.515732,1
1767,7.487152,0.28988647,5.544464,1
1768,7.4895477,0.3509369,5.5276947,1
1769,7.4452667,0.36170959999999996,5.5193176,1
1770,7.43927,0.35693359999999996,5.533676,1
1771,7.400970500000001,0.34255979999999997,5.562408400000001,1
1772,7.423706,0.23123169,5.5576324,1
1773,7.521881,0.18334961,5.5504456,1
1774,7.523071300000001,0.16299438,5.563614,1
1775,7.5314483999999995,0.16059875,5.494171,1
1776,7.513489,0.21687317,5.4510803,1
1777,7.521881,0.24440002,5.458267,1
1778,7.490753,0.22045898,5.503753700000001,1
1779,7.485962,0.20729065,5.515732,1
1780,7.4811707,0.28509520000000005,5.5193176,1
1781,7.496734599999999,0.2815094,5.536072,1
1782,7.454834,0.2695465,5.5420685,1
1783,7.451248,0.2922821,5.5779724,1
1784,7.458435000000001,0.27671814,5.560013,1
1785,7.521881,0.24798584,5.518127400000001,1
1786,7.5099029999999996,0.2348175,5.5289,1
1787,7.469208,0.22883606,5.496567,1
1788,7.4560394,0.2635498,5.544464,1
1789,7.4727936,0.24919128,5.5049589999999995,1
1790,7.5039215,0.23841858,5.501358,1
1791,7.5434265,0.24798584,5.501358,1
1792,7.490753,0.24440002,5.4319305,1
1793,7.4955444,0.2192688,5.495376599999999,1
1794,7.4656066999999995,0.24320984,5.5049589999999995,1
1795,7.429702799999999,0.23960876,5.579178,1
1796,7.422516000000001,0.27192688,5.5695953000000005,1
1797,7.4560394,0.26475525,5.5252989999999995,1
1798,7.458435000000001,0.27192688,5.536072,1
1799,7.4895477,0.26594543,5.508545,1
1800,7.479980499999999,0.2635498,5.4989624,1
1801,7.4823759999999995,0.25637817,5.4929809999999994,1
1802,7.479980499999999,0.27671814,5.515732,1
1803,7.479980499999999,0.29109192,5.515732,1
1804,7.4895477,0.30065918,5.537277,1
1805,7.4572296,0.26475525,5.5061493,1
1806,7.458435000000001,0.23362732,5.5300902999999995,1
1807,7.475189,0.23362732,5.558822599999999,1
1808,7.4727936,0.20130920000000002,5.5252989999999995,1
1809,7.487152,0.20968628,5.494171,1
1810,7.501525999999999,0.17616272,5.556426999999999,1
1811,7.458435000000001,0.24919128,5.5145264,1
1812,7.4811707,0.28390503,5.5073395,1
1813,7.488357499999999,0.29467773,5.477417,1
1814,7.475189,0.29588318,5.515732,1
1815,7.4847565000000005,0.25398254,5.5468445,1
1816,7.470397999999999,0.25277710000000003,5.5145264,1
1817,7.487152,0.2922821,5.503753700000001,1
1818,7.4644165,0.28749084,5.5049589999999995,1
1819,7.435683999999999,0.27192688,5.491791,1
1820,7.475189,0.24798584,5.476227,1
1821,7.5051117,0.23721313,5.515732,1
1822,7.51828,0.23721313,5.4510803,1
1823,7.536239599999999,0.23602295,5.452286,1
1824,7.5003204,0.26475525,5.454681400000001,1
1825,7.453644000000001,0.22525024,5.508545,1
1826,7.4727936,0.20610046,5.4881897,1
1827,7.487152,0.25038147,5.497772,1
1828,7.5553894,0.27313232,5.477417,1
1829,7.5865173,0.30186462,5.475021400000001,1
1830,7.5374300000000005,0.3102417,5.44989,1
1831,7.514694,0.30545044,5.458267,1
1832,7.4991302,0.2815094,5.441513,1
1833,7.497925,0.18933105,5.423553500000001,1
1834,7.5541990000000006,0.10314941400000001,5.4594574,1
1835,7.567367599999999,0.03251648,5.508545,1
1836,7.5051117,0.057647705,5.4929809999999994,1
1837,7.477585,0.11631775,5.491791,1
1838,7.4117429999999995,0.1845398,5.4869995000000005,1
1839,7.408142,0.2132721,5.4833984000000004,1
1840,7.4811707,0.23362732,5.495376599999999,1
1841,7.5398254,0.25277710000000003,5.47023,1
1842,7.5446167,0.30545044,5.5707855,1
1843,7.5422210000000005,0.3222046,5.5396730000000005,1
1844,7.4656066999999995,0.33178709999999995,5.5504456,1
1845,7.4560394,0.32939148,5.5324860000000005,1
1846,7.398575,0.31861877,5.536072,1
1847,7.458435000000001,0.29826355,5.571991000000001,1
1848,7.488357499999999,0.26834106,5.5695953000000005,1
1849,7.469208,0.22285461,5.579178,1
1850,7.4416656,0.13546753,5.536072,1
1851,7.4572296,0.09715271,5.544464,1
1852,7.473984,0.07202148400000001,5.5289,1
1853,7.488357499999999,0.08039856,5.495376599999999,1
1854,7.5051117,0.09236145,5.484604,1
1855,7.511092999999999,0.13186646,5.445099,1
1856,7.533844,0.19293213,5.458267,1
1857,7.506317,0.2132721,5.518127400000001,1
1858,7.466811999999999,0.26475525,5.540863,1
1859,7.4452667,0.27313232,5.560013,1
1860,7.4249115,0.30784607,5.555237,1
1861,7.4249115,0.3222046,5.5504456,1
1862,7.3997649999999995,0.32939148,5.5827637,1
1863,7.4284973,0.30784607,5.579178,1
1864,7.4680023,0.24559021,5.6067047,1
1865,7.4823759999999995,0.19891357,5.5911406999999995,1
1866,7.477585,0.21447754,5.5300902999999995,1
1867,7.4332886,0.22883606,5.556426999999999,1
1868,7.4440612999999995,0.16897583,5.5289,1
1869,7.43927,0.21687317,5.5193176,1
1870,7.451248,0.22045898,5.5300902999999995,1
1871,7.440475500000001,0.22045898,5.575577,1
1872,7.4656066999999995,0.2240448,5.580368,1
1873,7.4656066999999995,0.1905365,5.6222687,1
1874,7.4716034,0.21087646,5.592346,1
1875,7.485962,0.18334961,5.615082,1
1876,7.4572296,0.22164917,5.573181,1
1877,7.4440612999999995,0.20848083,5.5935364000000005,1
1878,7.3865967,0.22525024,5.6450195,1
1879,7.375824000000001,0.22525024,5.633041400000001,1
1880,7.4057617,0.2300415,5.6354370000000005,1
1881,7.379425,0.24200439999999998,5.652191,1
1882,7.408142,0.23602295,5.6689606,1
1883,7.4057617,0.23602295,5.6486053,1
1884,7.4201202,0.2348175,5.6007233,1
1885,7.396178999999999,0.24679565,5.612686,1
1886,7.396178999999999,0.22525024,5.6007233,1
1887,7.4165344,0.27313232,5.636627,1
1888,7.436874400000001,0.24679565,5.6258545,1
1889,7.4117429999999995,0.26475525,5.6007233,1
1890,7.3973694000000005,0.25038147,5.5660095,1
1891,7.408142,0.26115417,5.597122,1
1892,7.4165344,0.23721313,5.655792,1
1893,7.408142,0.28390503,5.6246643,1
1894,7.387802000000001,0.25875854,5.654587,1
1895,7.3782195999999995,0.2348175,5.6210785,1
1896,7.410537700000001,0.19891357,5.636627,1
1897,7.396178999999999,0.19651794,5.651001,1
1898,7.422516000000001,0.19651794,5.604309,1
1899,7.4344788,0.21447754,5.599518,1
1900,7.406952,0.25398254,5.5983276,1
1901,7.414139,0.20848083,5.5983276,1
1902,7.4249115,0.24081421,5.6234589999999995,1
1903,7.4201202,0.22045898,5.599518,1
1904,7.398575,0.23960876,5.616287000000001,1
1905,7.422516000000001,0.24200439999999998,5.6234589999999995,1
1906,7.435683999999999,0.23123169,5.619873,1
1907,7.415328999999999,0.20968628,5.597122,1
1908,7.4332886,0.2515869,5.6067047,1
1909,7.367447,0.23242188,5.6414184999999994,1
1910,7.3782195999999995,0.25277710000000003,5.654587,1
1911,7.406952,0.25277710000000003,5.633041400000001,1
1912,7.398575,0.24919128,5.6569824,1
1913,7.415328999999999,0.2348175,5.62825,1
1914,7.4165344,0.25398254,5.616287000000001,1
1915,7.391388,0.2695465,5.579178,1
1916,7.430892999999999,0.27671814,5.62706,1
1917,7.3889923,0.22883606,5.6306458,1
1918,7.414139,0.22164917,5.659378,1
1919,7.4249115,0.2240448,5.6450195,1
1920,7.4811707,0.19293213,5.599518,1
1921,7.426101700000001,0.19412231,5.6222687,1
1922,7.414139,0.26834106,5.6234589999999995,1
1923,7.379425,0.22525024,5.660568,1
1924,7.3770294000000005,0.20848083,5.6689606,1
1925,7.354278599999999,0.23960876,5.6234589999999995,1
1926,7.36026,0.24440002,5.676132,1
1927,7.3901978,0.2815094,5.6174774,1
1928,7.410537700000001,0.26834106,5.616287000000001,1
1929,7.4344788,0.23841858,5.616287000000001,1
1930,7.430892999999999,0.23960876,5.6234589999999995,1
1931,7.423706,0.22045898,5.658188,1
1932,7.406952,0.21447754,5.653396599999999,1
1933,7.4213104,0.22045898,5.662964,1
1934,7.4213104,0.22045898,5.6234589999999995,1
1935,7.4189300000000005,0.22644043,5.6138916,1
1936,7.404556299999999,0.2132721,5.654587,1
1937,7.414139,0.18334961,5.6210785,1
1938,7.404556299999999,0.23960876,5.6306458,1
1939,7.398575,0.26235962,5.615082,1
1940,7.4189300000000005,0.24320984,5.6091003,1
1941,7.406952,0.25875854,5.603119,1
1942,7.4201202,0.20130920000000002,5.6486053,1
1943,7.453644000000001,0.26235962,5.603119,1
1944,7.4189300000000005,0.2132721,5.619873,1
1945,7.4249115,0.27192688,5.634247,1
1946,7.383011,0.23841858,5.6055145,1
1947,7.4165344,0.26475525,5.6138916,1
1948,7.410537700000001,0.26235962,5.592346,1
1949,7.391388,0.25398254,5.583954,1
1950,7.430892999999999,0.25038147,5.5983276,1
1951,7.436874400000001,0.1905365,5.589950599999999,1
1952,7.436874400000001,0.19651794,5.6246643,1
1953,7.430892999999999,0.21566772,5.62706,1
1954,7.426101700000001,0.24320984,5.62706,1
1955,7.442871,0.22883606,5.599518,1
1956,7.479980499999999,0.2803192,5.5540314,1
1957,7.435683999999999,0.2348175,5.5396730000000005,1
1958,7.430892999999999,0.24679565,5.571991000000001,1
1959,7.442871,0.21687317,5.563614,1
1960,7.4165344,0.23242188,5.5851593,1
1961,7.4416656,0.21687317,5.5827637,1
1962,7.4332886,0.21447754,5.5516357,1
1963,7.4452667,0.23362732,5.555237,1
1964,7.4811707,0.22525024,5.615082,1
1965,7.5398254,0.22644043,5.587555,1
1966,7.5206757,0.22883606,5.592346,1
1967,7.409347500000001,0.2803192,5.611496,1
1968,7.3315277000000005,0.28749084,5.658188,1
1969,7.3183746,0.27192688,5.597122,1
1970,7.3818207,0.2515869,5.556426999999999,1
1971,7.380615,0.31143188,5.537277,1
1972,7.409347500000001,0.33657837,5.481018,1
1973,7.447647,0.34735107,5.4786224,1
1974,7.475189,0.29707336,5.476227,1
1975,7.5446167,0.25277710000000003,5.4510803,1
1976,7.514694,0.25277710000000003,5.434326,1
1977,7.494339,0.24559021,5.5061493,1
1978,7.477585,0.2515869,5.54924,1
1979,7.4524384,0.29826355,5.558822599999999,1
1980,7.4596252000000005,0.24559021,5.4929809999999994,1
1981,7.4811707,0.25875854,5.503753700000001,1
1982,7.5422210000000005,0.2515869,5.533676,1
1983,7.5099029999999996,0.2635498,5.5456543,1
1984,7.550598,0.25517273,5.47023,1
1985,7.5434265,0.20010376,5.5109406,1
1986,7.519485499999999,0.21687317,5.503753700000001,1
1987,7.491943400000001,0.1905365,5.485794,1
1988,7.502716,0.19891357,5.445099,1
1989,7.512298599999999,0.16659546,5.515732,1
1990,7.5158844,0.1725769,5.4786224,1
1991,7.564972,0.11869812,5.4438934,1
1992,7.6056669999999995,0.15461731,5.458267,1
1993,7.5829315,0.117507935,5.4642487,1
1994,7.530258,0.16539001,5.475021400000001,1
1995,7.473984,0.19293213,5.4798126,1
1996,7.491943400000001,0.19770813,5.4786224,1
1997,7.4835663,0.21566772,5.4881897,1
1998,7.548217999999999,0.20370483,5.501358,1
1999,7.530258,0.15820313,5.484604,1
2000,7.5314483999999995,0.16419983,5.4881897,1
2001,7.5206757,0.23123169,5.477417,1
2002,7.469208,0.19891357,5.485794,1
2003,7.475189,0.25875854,5.508545,1
2004,7.5039215,0.24559021,5.4714355,1
2005,7.5398254,0.20729065,5.509735,1
2006,7.536239599999999,0.2300415,5.4989624,1
2007,7.5290527,0.25398254,5.5324860000000005,1
2008,7.502716,0.27552795,5.524108999999999,1
2009,7.525467,0.28749084,5.5193176,1
2010,7.4560394,0.2815094,5.503753700000001,1
2011,7.436874400000001,0.23123169,5.5300902999999995,1
2012,7.454834,0.22285461,5.5612183,1
2013,7.463211,0.17376709,5.5504456,1
2014,7.462021000000001,0.18693542,5.54924,1
2015,7.43927,0.16778564,5.4929809999999994,1
2016,7.4823759999999995,0.21208191,5.533676,1
2017,7.502716,0.21687317,5.5289,1
2018,7.485962,0.21687317,5.508545,1
2019,7.463211,0.20489502,5.5049589999999995,1
2020,7.4895477,0.22644043,5.5289,1
2021,7.5075073,0.1953125,5.5695953000000005,1
2022,7.4835663,0.21687317,5.536072,1
2023,7.448852499999999,0.23602295,5.5193176,1
2024,7.469208,0.1845398,5.5504456,1
2025,7.4835663,0.2132721,5.5432587,1
2026,7.4320984,0.1953125,5.533676,1
2027,7.4524384,0.22644043,5.5420685,1
2028,7.4680023,0.2695465,5.5300902999999995,1
2029,7.5003204,0.29707336,5.500168,1
2030,7.5541990000000006,0.29109192,5.473831,1
2031,7.533844,0.22285461,5.4869995000000005,1
2032,7.5290527,0.20729065,5.481018,1
2033,7.5434265,0.24559021,5.5121307,1
2034,7.580536,0.20130920000000002,5.552841,1
2035,7.521881,0.16659546,5.5540314,1
2036,7.5374300000000005,0.14743042,5.508545,1
2037,7.5422210000000005,0.03251648,5.5348816,1
2038,7.490753,0.0181427,5.5252989999999995,1
2039,7.4165344,-0.00579834,5.5193176,1
2040,7.299209599999999,0.086380005,5.522903400000001,1
2041,7.2704773000000005,0.21806335,5.576782,1
2042,7.3734283,0.28630066,5.631851,1
2043,7.4440612999999995,0.35812378,5.595932,1
2044,7.581726,0.4012146,5.5396730000000005,1
2045,7.579330400000001,0.3509369,5.4798126,1
2046,7.5470123,0.37368774,5.490585299999999,1
2047,7.458435000000001,0.37727356,5.611496,1
2048,7.3746339999999995,0.38804626,5.6258545,1
2049,7.371032700000001,0.34255979999999997,5.583954,1
2050,7.4117429999999995,0.29348755,5.6102905,1
2051,7.426101700000001,0.24440002,5.522903400000001,1
2052,7.512298599999999,0.2192688,5.5420685,1
2053,7.548217999999999,0.13665771,5.54924,1
2054,7.584121700000001,0.100753784,5.469040000000001,1
2055,7.5948944,0.09236145,5.44989,1
2056,7.5601807,0.093566895,5.4714355,1
2057,7.5003204,0.10673523,5.544464,1
2058,7.4177246,0.13546753,5.5252989999999995,1
2059,7.4021606,0.20610046,5.592346,1
2060,7.3854065,0.21447754,5.5516357,1
2061,7.4177246,0.23602295,5.575577,1
2062,7.436874400000001,0.20489502,5.533676,1
2063,7.488357499999999,0.20010376,5.652191,1
2064,7.453644000000001,0.23602295,5.5851593,1
2065,7.4452667,0.20130920000000002,5.583954,1
2066,7.43808,0.18814087,5.5983276,1
2067,7.410537700000001,0.18693542,5.5660095,1
2068,7.4284973,0.23960876,5.562408400000001,1
2069,7.466811999999999,0.24919128,5.5935364000000005,1
2070,7.4572296,0.23841858,5.560013,1
2071,7.477585,0.24081421,5.6019135,1
2072,7.487152,0.20968628,5.6102905,1
2073,7.4716034,0.15701294,5.6079099999999995,1
2074,7.4596252000000005,0.17736816,5.5827637,1
2075,7.430892999999999,0.2192688,5.5779724,1
2076,7.4284973,0.20848083,5.6079099999999995,1
2077,7.4201202,0.3222046,5.599518,1
2078,7.3865967,0.36410522,5.6222687,1
2079,7.3698425,0.33059692,5.6306458,1
2080,7.339919999999999,0.37368774,5.6474,1
2081,7.315979,0.39762878,5.6617737,1
2082,7.36026,0.37249756,5.636627,1
2083,7.380615,0.35932922,5.637832599999999,1
2084,7.4165344,0.30665588,5.660568,1
2085,7.453644000000001,0.2803192,5.639023,1
2086,7.4656066999999995,0.24200439999999998,5.580368,1
2087,7.448852499999999,0.16897583,5.595932,1
2088,7.375824000000001,0.18214417,5.589950599999999,1
2089,7.349487299999999,0.18814087,5.592346,1
2090,7.3375244,0.20249939,5.619873,1
2091,7.3482970000000005,0.1953125,5.62706,1
2092,7.3770294000000005,0.28630066,5.642624,1
2093,7.4057617,0.30186462,5.589950599999999,1
2094,7.4189300000000005,0.34376526,5.6294556,1
2095,7.396178999999999,0.34376526,5.5911406999999995,1
2096,7.380615,0.32341003,5.658188,1
2097,7.384200999999999,0.30784607,5.672546400000001,1
2098,7.436874400000001,0.2695465,5.5851593,1
2099,7.4416656,0.23721313,5.568405,1
2100,7.4464570000000005,0.19891357,5.588744999999999,1
2101,7.409347500000001,0.14503479,5.6294556,1
2102,7.422516000000001,0.17376709,5.615082,1
2103,7.410537700000001,0.16539001,5.603119,1
2104,7.4129333,0.21087646,5.576782,1
2105,7.423706,0.25038147,5.604309,1
2106,7.4320984,0.27313232,5.589950599999999,1
2107,7.447647,0.25398254,5.594742,1
2108,7.414139,0.26834106,5.5983276,1
2109,7.394989,0.24440002,5.636627,1
2110,7.4249115,0.2707367,5.631851,1
2111,7.403366,0.23721313,5.636627,1
2112,7.3937836,0.26115417,5.6210785,1
2113,7.391388,0.26235962,5.643814,1
2114,7.4129333,0.23123169,5.611496,1
2115,7.4572296,0.20610046,5.6306458,1
2116,7.427307000000001,0.22285461,5.6258545,1
2117,7.436874400000001,0.20610046,5.5779724,1
2118,7.454834,0.24798584,5.5935364000000005,1
2119,7.440475500000001,0.22525024,5.592346,1
2120,7.415328999999999,0.2240448,5.5851593,1
2121,7.453644000000001,0.21566772,5.616287000000001,1
2122,7.409347500000001,0.24320984,5.589950599999999,1
2123,7.414139,0.2348175,5.5863495,1
2124,7.4129333,0.22764587,5.589950599999999,1
2125,7.422516000000001,0.22045898,5.611496,1
2126,7.422516000000001,0.20968628,5.5815735,1
2127,7.429702799999999,0.24559021,5.573181,1
2128,7.4895477,0.22764587,5.592346,1
2129,7.496734599999999,0.2192688,5.5468445,1
2130,7.469208,0.20370483,5.5576324,1
2131,7.454834,0.25038147,5.508545,1
2132,7.466811999999999,0.24440002,5.560013,1
2133,7.4727936,0.2803192,5.5695953000000005,1
2134,7.4572296,0.31503296,5.5660095,1
2135,7.4560394,0.31503296,5.568405,1
2136,7.414139,0.28988647,5.5779724,1
2137,7.3937836,0.25517273,5.604309,1
2138,7.4189300000000005,0.24919128,5.599518,1
2139,7.469208,0.2300415,5.5576324,1
2140,7.448852499999999,0.2132721,5.5827637,1
2141,7.4656066999999995,0.21806335,5.579178,1
2142,7.4572296,0.18933105,5.6486053,1
2143,7.4129333,0.19651794,5.643814,1
2144,7.4284973,0.20010376,5.6234589999999995,1
2145,7.394989,0.22285461,5.588744999999999,1
2146,7.3770294000000005,0.22644043,5.5815735,1
2147,7.43927,0.24919128,5.6210785,1
2148,7.454834,0.23602295,5.588744999999999,1
2149,7.4213104,0.25756836,5.6079099999999995,1
2150,7.4332886,0.21687317,5.62706,1
2151,7.427307000000001,0.22764587,5.611496,1
2152,7.4057617,0.26475525,5.6138916,1
2153,7.43808,0.20370483,5.6246643,1
2154,7.4201202,0.2348175,5.6079099999999995,1
2155,7.400970500000001,0.2348175,5.62825,1
2156,7.4021606,0.24440002,5.6174774,1
2157,7.398575,0.24798584,5.6450195,1
2158,7.406952,0.30065918,5.594742,1
2159,7.426101700000001,0.27671814,5.6414184999999994,1
2160,7.4213104,0.27313232,5.639023,1
2161,7.392593400000001,0.25517273,5.6007233,1
2162,7.400970500000001,0.24320984,5.643814,1
2163,7.3901978,0.20610046,5.671355999999999,1
2164,7.372238,0.1725769,5.6497955,1
2165,7.371032700000001,0.20370483,5.6641693,1
2166,7.3470917,0.17497253,5.6952972,1
2167,7.354278599999999,0.2300415,5.6617737,1
2168,7.3901978,0.23841858,5.6258545,1
2169,7.400970500000001,0.25038147,5.62706,1
2170,7.391388,0.23960876,5.6486053,1
2171,7.3889923,0.23841858,5.580368,1
2172,7.383011,0.29348755,5.592346,1
2173,7.4464570000000005,0.28988647,5.6246643,1
2174,7.479980499999999,0.29707336,5.489395,1
2175,7.454834,0.28390503,5.5648040000000005,1
2176,7.4344788,0.33178709999999995,5.633041400000001,1
2177,7.3889923,0.3282013,5.655792,1
2178,7.3746339999999995,0.24559021,5.599518,1
2179,7.3482970000000005,0.18574524,5.6569824,1
2180,7.392593400000001,0.18693542,5.721634,1
2181,7.398575,0.17376709,5.7012787000000005,1
2182,7.394989,0.19891357,5.7288055,1
2183,7.3997649999999995,0.23602295,5.703674299999999,1
2184,7.356674000000001,0.30665588,5.6689606,1
2185,7.387802000000001,0.32699585,5.611496,1
2186,7.3997649999999995,0.35693359999999996,5.599518,1
2187,7.4189300000000005,0.40481567,5.571991000000001,1
2188,7.475189,0.38565063,5.6067047,1
2189,7.454834,0.32460022,5.6246643,1
2190,7.4344788,0.38446045,5.5707855,1
2191,7.4057617,0.40960693,5.6019135,1
2192,7.343506,0.38565063,5.690506,1
2193,7.2513274999999995,0.38327026,5.781479,1
2194,7.283645599999999,0.38446045,5.777893,1
2195,7.3459015,0.31982422,5.730011,1
2196,7.3865967,0.25277710000000003,5.678528,1
2197,7.392593400000001,0.20249939,5.6677550000000005,1
2198,7.3901978,0.15580750000000002,5.6474,1
2199,7.383011,0.10314941400000001,5.618683,1
2200,7.400970500000001,0.064834595,5.6174774,1
2201,7.448852499999999,0.03251648,5.616287000000001,1
2202,7.4416656,0.093566895,5.5827637,1
2203,7.4596252000000005,0.09715271,5.556426999999999,1
2204,7.4320984,0.10913086,5.642624,1
2205,7.3901978,0.18574524,5.6210785,1
2206,7.366256699999999,0.25398254,5.643814,1
2207,7.363861,0.31503296,5.6929016,1
2208,7.371032700000001,0.34854126,5.7371826,1
2209,7.356674000000001,0.36291504,5.769516,1
2210,7.3865967,0.37129209999999996,5.666565,1
2211,7.4344788,0.37010193,5.666565,1
2212,7.3746339999999995,0.36051940000000005,5.662964,1
2213,7.3111877000000005,0.33537292,5.6940919999999995,1
2214,7.3075867,0.27911377,5.7120514,1
2215,7.349487299999999,0.24320984,5.653396599999999,1
2216,7.454834,0.24559021,5.6210785,1
2217,7.512298599999999,0.23123169,5.6102905,1
2218,7.477585,0.19293213,5.62706,1
2219,7.426101700000001,0.15222168,5.703674299999999,1
2220,7.321960400000001,0.20968628,5.715637,1
2221,7.244140600000001,0.23721313,5.6857147,1
2222,7.199859599999999,0.32341003,5.750351,1
2223,7.2201996,0.28869629999999996,5.709656,1
2224,7.3339232999999995,0.3222046,5.660568,1
2225,7.476379400000001,0.28988647,5.611496,1
2226,7.592499,0.29707336,5.612686,1
2227,7.575744599999999,0.2803192,5.643814,1
2228,7.514694,0.25875854,5.6138916,1
2229,7.427307000000001,0.25637817,5.636627,1
2230,7.295624,0.18933105,5.6174774,1
2231,7.2453460000000005,0.18574524,5.662964,1
2232,7.272873,0.2132721,5.662964,1
2233,7.3363190000000005,0.18574524,5.7252197,1
2234,7.408142,0.18693542,5.709656,1
2235,7.429702799999999,0.2348175,5.6737366,1
2236,7.4416656,0.28749084,5.6617737,1
2237,7.3818207,0.2635498,5.6952972,1
2238,7.3626556,0.27432249999999997,5.70726,1
2239,7.384200999999999,0.299469,5.6294556,1
2240,7.4344788,0.3222046,5.568405,1
2241,7.4835663,0.299469,5.552841,1
2242,7.4727936,0.29348755,5.639023,1
2243,7.4177246,0.15580750000000002,5.6952972,1
2244,7.3470917,0.18214417,5.741974,1
2245,7.332733,0.15820313,5.678528,1
2246,7.3363190000000005,0.20370483,5.690506,1
2247,7.3423157,0.31503296,5.6845245,1
2248,7.3482970000000005,0.30065918,5.62706,1
2249,7.430892999999999,0.31861877,5.6258545,1
2250,7.460815400000001,0.32939148,5.6079099999999995,1
2251,7.462021000000001,0.3796692,5.604309,1
2252,7.414139,0.36410522,5.62825,1
2253,7.3411100000000005,0.39164734,5.634247,1
2254,7.282455400000001,0.37487793,5.6486053,1
2255,7.319564999999999,0.29707336,5.6881104,1
2256,7.379425,0.2348175,5.715637,1
2257,7.404556299999999,0.1905365,5.603119,1
2258,7.4991302,0.16419983,5.6102905,1
2259,7.526657000000001,0.15222168,5.643814,1
2260,7.460815400000001,0.16659546,5.6689606,1
2261,7.365051299999999,0.1797638,5.643814,1
2262,7.314773599999999,0.22644043,5.6450195,1
2263,7.3614654999999996,0.19172668,5.6138916,1
2264,7.4284973,0.17736816,5.62706,1
2265,7.4344788,0.15820313,5.639023,1
2266,7.4416656,0.1330719,5.659378,1
2267,7.4129333,0.13905334,5.698883,1
2268,7.4177246,0.21566772,5.672546400000001,1
2269,7.3626556,0.23960876,5.676132,1
2270,7.3111877000000005,0.29826355,5.6402282999999995,1
2271,7.3255463,0.31742859999999995,5.658188,1
2272,7.3459015,0.36650085,5.637832599999999,1
2273,7.427307000000001,0.34376526,5.6414184999999994,1
2274,7.4644165,0.35214233,5.6258545,1
2275,7.43808,0.28988647,5.662964,1
2276,7.392593400000001,0.27911377,5.671355999999999,1
2277,7.3411100000000005,0.29467773,5.6797333,1
2278,7.320755,0.3102417,5.6462097,1
2279,7.35907,0.27192688,5.6497955,1
2280,7.3997649999999995,0.24679565,5.6306458,1
2281,7.466811999999999,0.21087646,5.643814,1
2282,7.463211,0.18574524,5.6234589999999995,1
2283,7.4811707,0.16059875,5.6450195,1
2284,7.4656066999999995,0.14384460000000002,5.6174774,1
2285,7.406952,0.14982605,5.587555,1
2286,7.394989,0.1330719,5.634247,1
2287,7.3854065,0.1510315,5.6641693,1
2288,7.36026,0.15701294,5.639023,1
2289,7.3782195999999995,0.259964,5.6174774,1
2290,7.3746339999999995,0.32699585,5.637832599999999,1
2291,7.3782195999999995,0.34616090000000005,5.62825,1
2292,7.3937836,0.33657837,5.6246643,1
2293,7.4572296,0.299469,5.633041400000001,1
2294,7.427307000000001,0.25875854,5.633041400000001,1
2295,7.429702799999999,0.22644043,5.642624,1
2296,7.3937836,0.22644043,5.6809235000000005,1
2297,7.3291473,0.1845398,5.674942,1
2298,7.355484,0.1953125,5.6653595,1
2299,7.4716034,0.18814087,5.6569824,1
2300,7.494339,0.1618042,5.619873,1
2301,7.4117429999999995,0.2192688,5.571991000000001,1
2302,7.356674000000001,0.29348755,5.6474,1
2303,7.236969,0.39164734,5.7431792999999995,1
2304,7.1531677,0.37368774,5.774307299999999,1
2305,7.244140600000001,0.38327026,5.825775,1
2306,7.3626556,0.40960693,5.777893,1
2307,7.3614654999999996,0.39164734,5.683319,1
2308,7.3506927,0.4084015,5.6845245,1
2309,7.3470917,0.38446045,5.683319,1
2310,7.320755,0.33776855,5.710861,1
2311,7.28125,0.27192688,5.7060699999999995,1
2312,7.2944183,0.2300415,5.7324066,1
2313,7.349487299999999,0.1725769,5.678528,1
2314,7.3746339999999995,0.16659546,5.704864499999999,1
2315,7.3746339999999995,0.17616272,5.6569824,1
2316,7.435683999999999,0.1845398,5.595932,1
2317,7.536239599999999,0.20130920000000002,5.5851593,1
2318,7.485962,0.21806335,5.580368,1
2319,7.479980499999999,0.20610046,5.611496,1
2320,7.5290527,0.23960876,5.616287000000001,1
2321,7.463211,0.24081421,5.54924,1
2322,7.409347500000001,0.25398254,5.575577,1
2323,7.3734283,0.2707367,5.690506,1
2324,7.195068400000001,0.28509520000000005,5.7443695,1
2325,7.193863,0.2707367,5.7335970000000005,1
2326,7.3075867,0.33776855,5.755142,1
2327,7.391388,0.31503296,5.715637,1
2328,7.410537700000001,0.33776855,5.6677550000000005,1
2329,7.43927,0.3138275,5.6067047,1
2330,7.4452667,0.35693359999999996,5.522903400000001,1
2331,7.442871,0.35333252,5.5348816,1
2332,7.4344788,0.28869629999999996,5.6306458,1
2333,7.3997649999999995,0.22644043,5.658188,1
2334,7.3686523,0.18693542,5.6462097,1
2335,7.3770294000000005,0.1510315,5.6402282999999995,1
2336,7.375824000000001,0.13546753,5.6893005,1
2337,7.4021606,0.19293213,5.697693,1
2338,7.4332886,0.18693542,5.6689606,1
2339,7.447647,0.24679565,5.6174774,1
2340,7.3901978,0.25637817,5.589950599999999,1
2341,7.3782195999999995,0.31982422,5.637832599999999,1
2342,7.324356,0.36410522,5.6246643,1
2343,7.354278599999999,0.31742859999999995,5.655792,1
2344,7.354278599999999,0.29707336,5.654587,1
2345,7.3626556,0.34136963,5.6617737,1
2346,7.321960400000001,0.37249756,5.676132,1
2347,7.354278599999999,0.4072113,5.686905,1
2348,7.3506927,0.3677063,5.703674299999999,1
2349,7.3506927,0.30784607,5.655792,1
2350,7.375824000000001,0.29109192,5.7192383,1
2351,7.403366,0.2515869,5.6893005,1
2352,7.344696000000001,0.2635498,5.6617737,1
2353,7.3411100000000005,0.25038147,5.6354370000000005,1
2354,7.3423157,0.23123169,5.676132,1
2355,7.3698425,0.26594543,5.6294556,1
2356,7.4057617,0.24559021,5.618683,1
2357,7.414139,0.24081421,5.6677550000000005,1
2358,7.430892999999999,0.22164917,5.655792,1
2359,7.404556299999999,0.2300415,5.683319,1
2360,7.4165344,0.24559021,5.6210785,1
2361,7.4117429999999995,0.30903625,5.6174774,1
2362,7.3865967,0.30545044,5.6306458,1
2363,7.383011,0.30665588,5.6450195,1
2364,7.363861,0.31143188,5.683319,1
2365,7.338714599999999,0.28988647,5.643814,1
2366,7.3770294000000005,0.24559021,5.6246643,1
2367,7.4201202,0.23960876,5.634247,1
2368,7.36026,0.24081421,5.6234589999999995,1
2369,7.4284973,0.28749084,5.560013,1
2370,7.4644165,0.3138275,5.5217133,1
2371,7.508713,0.36410522,5.5145264,1
2372,7.490753,0.30305479999999996,5.5863495,1
2373,7.5039215,0.32101440000000003,5.6091003,1
2374,7.497925,0.19412231,5.509735,1
2375,7.579330400000001,0.18214417,5.44989,1
2376,7.5075073,0.1725769,5.501358,1
2377,7.5075073,0.20729065,5.604309,1
2378,7.557785000000001,0.14982605,5.5695953000000005,1
2379,7.5278625,0.17376709,5.540863,1
2380,7.511092999999999,0.13186646,5.522903400000001,1
2381,7.451248,0.19891357,5.567199700000001,1
2382,7.4332886,0.16778564,5.5983276,1
2383,7.3901978,0.2300415,5.54805,1
2384,7.313583400000001,0.21687317,5.603119,1
2385,7.3040009999999995,0.24798584,5.6809235000000005,1
2386,7.3506927,0.27192688,5.702469000000001,1
2387,7.403366,0.35812378,5.678528,1
2388,7.3889923,0.43473816,5.6222687,1
2389,7.398575,0.46228027,5.604309,1
2390,7.372238,0.41079712,5.6067047,1
2391,7.372238,0.30784607,5.6474,1
2392,7.43927,0.1905365,5.6857147,1
2393,7.448852499999999,0.117507935,5.6737366,1
2394,7.387802000000001,0.15940857,5.659378,1
2395,7.3614654999999996,0.25637817,5.7132416,1
2396,7.3303375,0.34616090000000005,5.6964874000000005,1
2397,7.3315277000000005,0.378479,5.714447,1
2398,7.3255463,0.39762878,5.682129,1
2399,7.320755,0.3102417,5.6258545,1
2400,7.3363190000000005,0.14863586,5.659378,1
2401,7.4057617,0.026535034,5.6102905,1
2402,7.453644000000001,-0.0045928955,5.6067047,1
2403,7.541030999999999,-0.015365601000000001,5.54805,1
2404,7.513489,0.03251648,5.568405,1
2405,7.485962,0.08279419,5.5420685,1
2406,7.4332886,0.1797638,5.5576324,1
2407,7.4284973,0.25277710000000003,5.6067047,1
2408,7.379425,0.26475525,5.658188,1
2409,7.332733,0.29588318,5.6402282999999995,1
2410,7.3075867,0.27313232,5.653396599999999,1
2411,7.363861,0.31982422,5.666565,1
2412,7.355484,0.31742859999999995,5.6952972,1
2413,7.3889923,0.31263733,5.703674299999999,1
2414,7.3746339999999995,0.3138275,5.682129,1
2415,7.3770294000000005,0.28869629999999996,5.631851,1
2416,7.3626556,0.2695465,5.5935364000000005,1
2417,7.344696000000001,0.2707367,5.6019135,1
2418,7.4117429999999995,0.27552795,5.5707855,1
2419,7.453644000000001,0.2695465,5.568405,1
2420,7.490753,0.24798584,5.575577,1
2421,7.473984,0.24081421,5.6055145,1
2422,7.4117429999999995,0.22525024,5.655792,1
2423,7.4057617,0.20010376,5.6007233,1
2424,7.383011,0.20249939,5.659378,1
2425,7.3865967,0.20489502,5.70726,1
2426,7.392593400000001,0.1953125,5.6497955,1
2427,7.427307000000001,0.18814087,5.5707855,1
2428,7.4165344,0.18214417,5.537277,1
2429,7.4177246,0.20968628,5.62706,1
2430,7.4332886,0.21566772,5.6102905,1
2431,7.4284973,0.2515869,5.6222687,1
2432,7.4189300000000005,0.25637817,5.6102905,1
2433,7.406952,0.25875854,5.595932,1
2434,7.423706,0.27432249999999997,5.563614,1
2435,7.423706,0.22045898,5.5540314,1
2436,7.398575,0.25277710000000003,5.604309,1
2437,7.3937836,0.2515869,5.592346,1
2438,7.429702799999999,0.22164917,5.5863495,1
2439,7.475189,0.25517273,5.531296,1
2440,7.4560394,0.22764587,5.563614,1
2441,7.475189,0.20489502,5.54805,1
2442,7.462021000000001,0.22285461,5.575577,1
2443,7.4823759999999995,0.20729065,5.54924,1
2444,7.4895477,0.21687317,5.5660095,1
2445,7.473984,0.22644043,5.568405,1
2446,7.440475500000001,0.2707367,5.594742,1
2447,7.4057617,0.24559021,5.5935364000000005,1
2448,7.371032700000001,0.25637817,5.6258545,1
2449,7.383011,0.23841858,5.612686,1
2450,7.4320984,0.26594543,5.643814,1
2451,7.430892999999999,0.25398254,5.6677550000000005,1
2452,7.448852499999999,0.23602295,5.618683,1
2453,7.448852499999999,0.22164917,5.594742,1
2454,7.4320984,0.2300415,5.5432587,1
2455,7.4057617,0.2300415,5.579178,1
2456,7.4344788,0.22045898,5.6007233,1
2457,7.440475500000001,0.23841858,5.544464,1
2458,7.470397999999999,0.19412231,5.5516357,1
2459,7.426101700000001,0.1953125,5.571991000000001,1
2460,7.458435000000001,0.24440002,5.592346,1
2461,7.423706,0.2695465,5.5743865999999995,1
2462,7.430892999999999,0.26235962,5.587555,1
2463,7.4213104,0.26475525,5.612686,1
2464,7.409347500000001,0.2815094,5.6091003,1
2465,7.423706,0.25398254,5.6067047,1
2466,7.4057617,0.22164917,5.615082,1
2467,7.3686523,0.19172668,5.6007233,1
2468,7.4249115,0.18574524,5.6007233,1
2469,7.460815400000001,0.18334961,5.62825,1
2470,7.453644000000001,0.17736816,5.5863495,1
2471,7.440475500000001,0.23362732,5.571991000000001,1
2472,7.43927,0.25875854,5.558822599999999,1
2473,7.415328999999999,0.25637817,5.552841,1
2474,7.4021606,0.27432249999999997,5.616287000000001,1
2475,7.403366,0.28509520000000005,5.619873,1
2476,7.4284973,0.25517273,5.6677550000000005,1
2477,7.4500427,0.28749084,5.6306458,1
2478,7.4440612999999995,0.26594543,5.558822599999999,1
2479,7.43808,0.24081421,5.5516357,1
2480,7.4249115,0.21566772,5.580368,1
2481,7.4440612999999995,0.23242188,5.5648040000000005,1
2482,7.4560394,0.21087646,5.556426999999999,1
2483,7.4440612999999995,0.22644043,5.599518,1
2484,7.469208,0.23602295,5.568405,1
2485,7.423706,0.1953125,5.604309,1
2486,7.383011,0.2192688,5.639023,1
2487,7.344696000000001,0.20610046,5.6234589999999995,1
2488,7.403366,0.21687317,5.6091003,1
2489,7.4727936,0.22045898,5.589950599999999,1
2490,7.4835663,0.23123169,5.537277,1
2491,7.497925,0.2635498,5.558822599999999,1
2492,7.4847565000000005,0.26475525,5.536072,1
2493,7.448852499999999,0.27192688,5.5265045,1
2494,7.462021000000001,0.21566772,5.491791,1
2495,7.442871,0.19172668,5.575577,1
2496,7.4177246,0.22525024,5.533676,1
2497,7.4117429999999995,0.23362732,5.594742,1
2498,7.3734283,0.22644043,5.556426999999999,1
2499,7.4249115,0.20968628,5.560013,1
2500,7.430892999999999,0.24679565,5.560013,1
2501,7.429702799999999,0.26834106,5.5648040000000005,1
2502,7.4596252000000005,0.2300415,5.5660095,1
2503,7.493149000000001,0.26475525,5.6055145,1
2504,7.557785000000001,0.22883606,5.515732,1
2505,7.5278625,0.22644043,5.4630585,1
2506,7.5075073,0.16897583,5.4881897,1
2507,7.466811999999999,0.1953125,5.5217133,1
2508,7.4727936,0.19172668,5.516922,1
2509,7.4596252000000005,0.2192688,5.5145264,1
2510,7.4955444,0.2635498,5.481018,1
2511,7.513489,0.26235962,5.500168,1
2512,7.535049400000001,0.2803192,5.4833984000000004,1
2513,7.506317,0.23721313,5.4929809999999994,1
2514,7.487152,0.21447754,5.477417,1
2515,7.5051117,0.1953125,5.461853,1
2516,7.5314483999999995,0.22764587,5.455871599999999,1
2517,7.5601807,0.24559021,5.458267,1
2518,7.5206757,0.24679565,5.453476,1
2519,7.561386,0.21566772,5.497772,1
2520,7.511092999999999,0.17855835,5.494171,1
2521,7.494339,0.22883606,5.5025635,1
2522,7.4440612999999995,0.24679565,5.5324860000000005,1
2523,7.3889923,0.25277710000000003,5.5348816,1
2524,7.4129333,0.24440002,5.520508,1
2525,7.462021000000001,0.22164917,5.497772,1
2526,7.494339,0.20249939,5.5300902999999995,1
2527,7.4895477,0.26715088,5.536072,1
2528,7.5039215,0.24440002,5.5324860000000005,1
2529,7.463211,0.23242188,5.5420685,1
2530,7.469208,0.22164917,5.5324860000000005,1
2531,7.4596252000000005,0.20010376,5.5695953000000005,1
2532,7.4644165,0.2132721,5.522903400000001,1
2533,7.430892999999999,0.21806335,5.5109406,1
2534,7.473984,0.19770813,5.54924,1
2535,7.4727936,0.25038147,5.5456543,1
2536,7.478775,0.21447754,5.5516357,1
2537,7.4680023,0.24440002,5.5516357,1
2538,7.4344788,0.24200439999999998,5.5265045,1
2539,7.463211,0.2348175,5.556426999999999,1
2540,7.458435000000001,0.22525024,5.5660095,1
2541,7.4847565000000005,0.26235962,5.563614,1
2542,7.453644000000001,0.25277710000000003,5.540863,1
2543,7.476379400000001,0.21208191,5.558822599999999,1
2544,7.4727936,0.19412231,5.5743865999999995,1
2545,7.4464570000000005,0.19770813,5.5540314,1
2546,7.463211,0.19891357,5.522903400000001,1
2547,7.451248,0.21447754,5.5145264,1
2548,7.4644165,0.23960876,5.5265045,1
2549,7.453644000000001,0.30186462,5.5049589999999995,1
2550,7.458435000000001,0.25398254,5.537277,1
2551,7.4596252000000005,0.25398254,5.5049589999999995,1
2552,7.440475500000001,0.22525024,5.520508,1
2553,7.5039215,0.21447754,5.5348816,1
2554,7.494339,0.24919128,5.522903400000001,1
2555,7.4716034,0.24798584,5.5300902999999995,1
2556,7.4680023,0.22525024,5.538467400000001,1
2557,7.4464570000000005,0.22644043,5.5420685,1
2558,7.422516000000001,0.24440002,5.540863,1
2559,7.4452667,0.20010376,5.5576324,1
2560,7.4656066999999995,0.20489502,5.5540314,1
2561,7.4895477,0.22164917,5.5193176,1
2562,7.5003204,0.20370483,5.533676,1
2563,7.5206757,0.2348175,5.500168,1
2564,7.497925,0.2240448,5.503753700000001,1
2565,7.4727936,0.20610046,5.537277,1
2566,7.4452667,0.24798584,5.54805,1
2567,7.4596252000000005,0.25038147,5.562408400000001,1
2568,7.4656066999999995,0.23242188,5.5145264,1
2569,7.4596252000000005,0.2192688,5.5468445,1
2570,7.502716,0.21087646,5.5432587,1
2571,7.4847565000000005,0.20130920000000002,5.555237,1
2572,7.490753,0.23721313,5.5324860000000005,1
2573,7.4847565000000005,0.24081421,5.576782,1
2574,7.4440612999999995,0.24559021,5.5300902999999995,1
2575,7.394989,0.27792358,5.5061493,1
2576,7.451248,0.23362732,5.508545,1
2577,7.512298599999999,0.26115417,5.4989624,1
2578,7.5541990000000006,0.2300415,5.497772,1
2579,7.541030999999999,0.25277710000000003,5.5049589999999995,1
2580,7.488357499999999,0.22285461,5.484604,1
2581,7.440475500000001,0.24679565,5.5348816,1
2582,7.429702799999999,0.22045898,5.54924,1
2583,7.4117429999999995,0.20249939,5.587555,1
2584,7.4249115,0.21806335,5.575577,1
2585,7.458435000000001,0.22883606,5.5109406,1
2586,7.491943400000001,0.23841858,5.54924,1
2587,7.4811707,0.25517273,5.5456543,1
2588,7.479980499999999,0.23721313,5.5516357,1
2589,7.475189,0.23602295,5.5707855,1
2590,7.4644165,0.21566772,5.575577,1
2591,7.493149000000001,0.22644043,5.544464,1
2592,7.5206757,0.2300415,5.5265045,1
2593,7.524261500000001,0.19412231,5.497772,1
2594,7.477585,0.24559021,5.5109406,1
2595,7.463211,0.20968628,5.537277,1
2596,7.427307000000001,0.20130920000000002,5.576782,1
2597,7.404556299999999,0.259964,5.579178,1
2598,7.4524384,0.25875854,5.560013,1
2599,7.514694,0.22764587,5.5348816,1
2600,7.51828,0.24798584,5.536072,1
2601,7.513489,0.22764587,5.5121307,1
2602,7.463211,0.2132721,5.5217133,1
2603,7.4596252000000005,0.21447754,5.5217133,1
2604,7.436874400000001,0.2240448,5.531296,1
2605,7.4500427,0.20010376,5.5300902999999995,1
2606,7.4452667,0.25277710000000003,5.531296,1
2607,7.460815400000001,0.22285461,5.531296,1
2608,7.5003204,0.259964,5.513336,1
2609,7.535049400000001,0.26594543,5.458267,1
2610,7.549408000000001,0.24919128,5.489395,1
2611,7.5446167,0.22285461,5.484604,1
2612,7.512298599999999,0.20010376,5.4486847,1
2613,7.497925,0.19412231,5.4367220000000005,1
2614,7.5003204,0.2132721,5.489395,1
2615,7.514694,0.2192688,5.4929809999999994,1
2616,7.524261500000001,0.2132721,5.489395,1
2617,7.5553894,0.24559021,5.494171,1
2618,7.523071300000001,0.25398254,5.413971,1
2619,7.524261500000001,0.27192688,5.458267,1
2620,7.491943400000001,0.2132721,5.47023,1
2621,7.4656066999999995,0.23602295,5.5121307,1
2622,7.477585,0.23362732,5.491791,1
2623,7.496734599999999,0.25517273,5.4474945,1
2624,7.501525999999999,0.2635498,5.469040000000001,1
2625,7.5039215,0.24320984,5.4678497,1
2626,7.5398254,0.22644043,5.4642487,1
2627,7.5051117,0.2300415,5.4474945,1
2628,7.506317,0.19891357,5.47023,1
2629,7.519485499999999,0.2192688,5.4678497,1
2630,7.530258,0.22164917,5.4833984000000004,1
2631,7.536239599999999,0.23602295,5.461853,1
2632,7.5099029999999996,0.20848083,5.4283447,1
2633,7.536239599999999,0.22764587,5.4367220000000005,1
2634,7.525467,0.20370483,5.4438934,1
2635,7.5290527,0.22285461,5.476227,1
2636,7.511092999999999,0.21087646,5.4678497,1
2637,7.506317,0.2240448,5.496567,1
2638,7.501525999999999,0.21687317,5.446289,1
2639,7.523071300000001,0.2192688,5.490585299999999,1
2640,7.5051117,0.20729065,5.4798126,1
2641,7.497925,0.21687317,5.4786224,1
2642,7.508713,0.2132721,5.481018,1
2643,7.51828,0.24559021,5.509735,1
2644,7.491943400000001,0.23721313,5.4714355,1
2645,7.488357499999999,0.2300415,5.4786224,1
2646,7.477585,0.24798584,5.491791,1
2647,7.4656066999999995,0.24440002,5.4881897,1
2648,7.423706,0.25398254,5.477417,1
2649,7.532653999999999,0.21208191,5.494171,1
2650,7.5422210000000005,0.23123169,5.4929809999999994,1
2651,7.5398254,0.25398254,5.485794,1
2652,7.524261500000001,0.24798584,5.485794,1
2653,7.5398254,0.24919128,5.485794,1
2654,7.572159,0.24559021,5.4833984000000004,1
2655,7.5206757,0.22045898,5.445099,1
2656,7.487152,0.2192688,5.446289,1
2657,7.4332886,0.21447754,5.503753700000001,1
2658,7.442871,0.23841858,5.5432587,1
2659,7.423706,0.18574524,5.5049589999999995,1
2660,7.466811999999999,0.22164917,5.473831,1
2661,7.487152,0.28988647,5.473831,1
2662,7.541030999999999,0.31622314,5.429535,1
2663,7.6032715,0.33178709999999995,5.421158,1
2664,7.5589905,0.259964,5.508545,1
2665,7.525467,0.19412231,5.5217133,1
2666,7.5470123,0.17376709,5.494171,1
2667,7.523071300000001,0.16778564,5.5432587,1
2668,7.4727936,0.1905365,5.522903400000001,1
2669,7.5039215,0.18814087,5.4822083,1
2670,7.5158844,0.19770813,5.5576324,1
2671,7.4895477,0.16059875,5.4630585,1
2672,7.514694,0.14263916,5.4570620000000005,1
2673,7.523071300000001,0.17497253,5.454681400000001,1
2674,7.51709,0.23960876,5.455871599999999,1
2675,7.5278625,0.27552795,5.489395,1
2676,7.4895477,0.3138275,5.489395,1
2677,7.490753,0.3102417,5.4833984000000004,1
2678,7.4524384,0.30784607,5.5289,1
2679,7.463211,0.25277710000000003,5.5276947,1
2680,7.462021000000001,0.24919128,5.5252989999999995,1
2681,7.4440612999999995,0.25277710000000003,5.5396730000000005,1
2682,7.43927,0.24919128,5.516922,1
2683,7.478775,0.26834106,5.5468445,1
2684,7.4955444,0.2695465,5.5073395,1
2685,7.496734599999999,0.26475525,5.5276947,1
2686,7.4811707,0.28630066,5.515732,1
2687,7.4596252000000005,0.25756836,5.5121307,1
2688,7.458435000000001,0.26834106,5.5073395,1
2689,7.436874400000001,0.26834106,5.531296,1
2690,7.43927,0.22525024,5.5073395,1
2691,7.488357499999999,0.19891357,5.5193176,1
2692,7.532653999999999,0.21447754,5.5504456,1
2693,7.569763000000001,0.19412231,5.4881897,1
2694,7.4811707,0.16659546,5.4630585,1
2695,7.4835663,0.18214417,5.4798126,1
2696,7.476379400000001,0.16539001,5.5289,1
2697,7.508713,0.16897583,5.515732,1
2698,7.493149000000001,0.2132721,5.513336,1
2699,7.485962,0.22045898,5.4642487,1
2700,7.4895477,0.24798584,5.4570620000000005,1
2701,7.530258,0.2695465,5.434326,1
2702,7.5541990000000006,0.24919128,5.460662999999999,1
2703,7.549408000000001,0.20968628,5.421158,1
2704,7.579330400000001,0.21687317,5.441513,1
2705,7.536239599999999,0.1905365,5.422348,1
2706,7.552994,0.26475525,5.418762,1
2707,7.532653999999999,0.22164917,5.413971,1
2708,7.5541990000000006,0.1845398,5.4091797,1
2709,7.556595,0.17736816,5.4091797,1
2710,7.561386,0.17376709,5.405594000000001,1
2711,7.588913000000001,0.22285461,5.3888397,1
2712,7.6152496,0.22045898,5.3936157,1
2713,7.573349,0.25038147,5.358902,1
2714,7.530258,0.23242188,5.419952400000001,1
2715,7.4680023,0.1905365,5.4427031999999995,1
2716,7.4727936,0.22285461,5.4798126,1
2717,7.4572296,0.1953125,5.509735,1
2718,7.451248,0.18933105,5.537277,1
2719,7.4835663,0.20729065,5.5324860000000005,1
2720,7.501525999999999,0.20249939,5.458267,1
2721,7.535049400000001,0.26235962,5.461853,1
2722,7.5422210000000005,0.30426025,5.4331207,1
2723,7.567367599999999,0.31503296,5.425949,1
2724,7.574539,0.23123169,5.4271392999999994,1
2725,7.535049400000001,0.18693542,5.4355164,1
2726,7.502716,0.17736816,5.4510803,1
2727,7.5099029999999996,0.22644043,5.453476,1
2728,7.478775,0.24440002,5.4666443,1
2729,7.490753,0.2348175,5.4642487,1
2730,7.525467,0.20610046,5.500168,1
2731,7.566161999999999,0.19172668,5.461853,1
2732,7.564972,0.23721313,5.4403076,1
2733,7.51709,0.22285461,5.4869995000000005,1
2734,7.478775,0.22164917,5.475021400000001,1
2735,7.4847565000000005,0.23721313,5.500168,1
2736,7.491943400000001,0.2635498,5.460662999999999,1
2737,7.487152,0.26834106,5.4786224,1
2738,7.5003204,0.20610046,5.484604,1
2739,7.5051117,0.21447754,5.490585299999999,1
2740,7.4560394,0.2300415,5.513336,1
2741,7.458435000000001,0.2300415,5.536072,1
2742,7.469208,0.2515869,5.515732,1
2743,7.519485499999999,0.27671814,5.490585299999999,1
2744,7.5039215,0.24559021,5.481018,1
2745,7.508713,0.25398254,5.4786224,1
2746,7.5075073,0.22525024,5.4642487,1
2747,7.5099029999999996,0.20249939,5.5061493,1
2748,7.494339,0.21566772,5.5073395,1
2749,7.4680023,0.21687317,5.5289,1
2750,7.4656066999999995,0.24081421,5.476227,1
2751,7.490753,0.21208191,5.5300902999999995,1
2752,7.477585,0.2132721,5.520508,1
2753,7.4835663,0.20968628,5.5576324,1
2754,7.466811999999999,0.23721313,5.533676,1
2755,7.4823759999999995,0.21087646,5.495376599999999,1
2756,7.501525999999999,0.24081421,5.5851593,1
2757,7.487152,0.2132721,5.5396730000000005,1
2758,7.479980499999999,0.22525024,5.5049589999999995,1
2759,7.485962,0.23362732,5.5121307,1
2760,7.478775,0.22644043,5.5468445,1
2761,7.460815400000001,0.2348175,5.516922,1
2762,7.462021000000001,0.23960876,5.509735,1
2763,7.4656066999999995,0.2515869,5.5468445,1
2764,7.4656066999999995,0.24679565,5.555237,1
2765,7.4452667,0.21087646,5.5324860000000005,1
2766,7.4680023,0.22883606,5.5420685,1
2767,7.541030999999999,0.2515869,5.54805,1
2768,7.5051117,0.20249939,5.494171,1
2769,7.43808,0.2192688,5.5109406,1
2770,7.4464570000000005,0.20130920000000002,5.5025635,1
2771,7.4464570000000005,0.19770813,5.5516357,1
2772,7.442871,0.19770813,5.5648040000000005,1
2773,7.448852499999999,0.2635498,5.560013,1
2774,7.4811707,0.26235962,5.5193176,1
2775,7.496734599999999,0.24679565,5.5217133,1
2776,7.4727936,0.26235962,5.5612183,1
2777,7.440475500000001,0.2300415,5.536072,1
2778,7.466811999999999,0.23242188,5.5396730000000005,1
2779,7.4656066999999995,0.20729065,5.567199700000001,1
2780,7.470397999999999,0.23841858,5.5276947,1
2781,7.460815400000001,0.24200439999999998,5.5420685,1
2782,7.451248,0.24440002,5.5420685,1
2783,7.454834,0.20729065,5.5145264,1
2784,7.454834,0.23362732,5.5265045,1
2785,7.458435000000001,0.20610046,5.5468445,1
2786,7.4656066999999995,0.19651794,5.560013,1
2787,7.487152,0.24798584,5.5540314,1
2788,7.453644000000001,0.25277710000000003,5.5612183,1
2789,7.454834,0.22644043,5.513336,1
2790,7.448852499999999,0.23602295,5.522903400000001,1
2791,7.4727936,0.18693542,5.568405,1
2792,7.4524384,0.22883606,5.5612183,1
2793,7.423706,0.23362732,5.594742,1
2794,7.429702799999999,0.25277710000000003,5.583954,1
2795,7.4500427,0.25517273,5.575577,1
