,AccX[m/s^2],AccY[m/s^2],AccZ[m/s^2],label
0,9.164291,-0.27754209999999996,-0.32373047,1
1,9.149933,-0.46427917,-0.23873901,1
2,9.149933,-0.46427917,-0.23873901,1
3,9.280411,-0.41041565,-0.333313,1
4,9.363022,-0.34338379999999996,-0.35964966,1
5,9.371399,-0.38887024,-0.31176758,1
6,9.333084,-0.48703003,-0.3440857,1
7,9.294785000000001,-0.46907043,-0.3764038,1
8,9.279221000000001,-0.41760254,-0.34048462,1
9,9.294785000000001,-0.37210083,-0.37042236,1
10,9.285202,-0.35176086,-0.4350585999999999,1
11,9.280411,-0.42716980000000004,-0.34048462,1
12,9.23851,-0.41520690000000005,-0.333313,1
13,9.262466,-0.36013794,-0.35365295,1
14,9.369003,-0.3146515,-0.36682129999999996,1
15,9.3941345,-0.17338562,-0.31893920000000003,1
16,9.402527000000001,-0.14225769,-0.377594,1
17,9.307953,-0.13508606,-0.49371338,1
18,9.279221000000001,-0.13986206,-0.43745422,1
19,9.322311000000001,-0.038116455,-0.48893738,1
20,9.273239,0.009765625,-0.5344238,1
21,9.199005,-0.085998535,-0.4350585999999999,1
22,9.318726,-0.088394165,-0.50090027,1
23,9.400131,-0.13388062,-0.3476715,1
24,9.412094,-0.2212677,-0.44104004,1
25,9.352234,-0.34936523,-0.44104004,1
26,9.225342,-0.44273376,-0.46858215,1
27,9.276825,-0.47625732,-0.39076233,1
28,9.280411,-0.35534668,-0.38119507,1
29,9.169083,-0.23803711,-0.3297119,1
30,9.039795,-0.23683167,-0.46020508,1
31,9.105637,-0.13627625,-0.30458070000000004,1
32,9.29837,-0.08720398,-0.36921692,1
33,9.240905999999999,-0.02734375,-0.57751465,1
34,9.286407,0.17736816,-0.52723694,1
35,9.385757,0.21687317,-0.41949463,1
36,9.21936,0.05645752,-0.33929443,1
37,9.091277999999999,-0.04888916,-0.17289734,1
38,9.069733,-0.12908936,-0.13937378,1
39,8.964386,-0.05128479,-0.27345276,1
40,9.135558999999999,0.02772522,-0.19683838,1
41,9.552155,0.16897583,-0.26507568,1
42,9.365402,0.24200439999999998,-0.456604,1
43,8.838683999999999,0.90519714,0.7153473000000001,1
44,6.833542,0.53170776,-1.4274597,1
45,9.792769999999999,0.055252075,-0.7582855,1
46,9.024231,0.37010193,-0.55596924,1
47,8.878189,0.5065613,-0.57751465,1
48,8.945221,0.29467773,-1.0419922,1
49,9.106842,0.21806335,-1.1748657,1
50,9.262466,0.34136963,-1.179657,1
51,9.129578,0.45628357,-0.8360901,1
52,9.075714,0.34255979999999997,-0.5894928,1
53,9.568924,-0.088394165,-0.35365295,1
54,9.779602,-0.26556396,0.20898438,1
55,9.189438,0.86808777,-0.8001709,1
56,9.225342,0.64183044,-0.83010864,1
57,9.286407,-0.19493103,0.031814575,1
58,9.049377,-0.40682983,0.29397583,1
59,9.559341,-0.1925354,0.08567810000000001,1
60,9.141556,0.05406189,-0.0340271,1
61,8.205414,0.6717681999999999,-0.19444275,1
62,8.443649,0.8118286,-0.11663818,1
63,8.775238,1.2978516000000002,-0.46260070000000003,1
64,10.121979,0.58677673,-0.95339966,1
65,8.672286999999999,0.97462463,-0.20402527,1
66,8.144363,0.82499695,-0.15135193,1
67,8.345474000000001,1.2966461,-0.10705566400000001,1
68,8.302383,1.0847626,-0.60505676,1
69,9.675461,0.80703735,-0.29020690000000005,1
70,8.352661,0.9064026,-0.47216797,1
71,8.26886,0.576004,-1.1569061,1
72,8.950012,0.27911377,-2.06073,1
73,9.63475,0.29826355,-2.4019012,1
74,9.134369,0.8237915000000001,-2.0918427,1
75,8.351471,0.20130920000000002,-6.2182617,1
76,12.137894000000001,-1.8648987000000001,-5.34317,1
77,10.898895,-1.151413,-1.2466888,1
78,11.880524000000001,-1.8505249,-2.0906525,1
79,9.562927,-1.2196503,-3.1692352,1
80,7.185486,-1.2950745000000001,-3.2686005000000002,1
81,6.886214999999999,-2.4957580000000004,-0.5966644,1
82,7.122039999999999,-3.9957275,0.66267395,1
83,6.6060944,-4.364441,-3.1297302000000005,1
84,10.868973,-5.5459747,-4.8810883,1
85,13.465485000000001,-4.4386597000000005,-4.7230834999999995,1
86,11.244858,-2.3126067999999997,-1.9242554,1
87,8.351471,-1.4183655000000002,-2.685608,1
88,7.5913086,-0.6127166999999999,-2.3193054,1
89,7.876220699999999,-0.9945984,-2.1924132999999997,1
90,8.510681,-1.2974701000000002,-2.8591919999999997,1
91,9.048172000000001,-1.724823,-4.9445343,1
92,9.426468,-1.9163666000000001,-2.7442627,1
93,8.349075,-1.6817322000000001,-3.04953,1
94,8.363434,-2.2551422000000003,-2.7191315,1
95,8.243729,-2.2994385,-2.8639832000000003,1
96,8.361038,-1.9810028000000002,-2.7586365,1
97,9.311539,-1.7787018,-3.2087402000000003,1
98,9.209793,-1.6506042,-3.8491974,1
99,8.772842,-1.4064026,-3.638504,1
100,8.857834,-1.1765594,-3.8635559999999995,1
101,7.8953705,-0.63786316,-3.788147,1
102,7.909729,-0.36013794,-3.0986176,1
103,8.689041,-0.02494812,-3.1548767000000004,1
104,8.526245,0.03012085,-3.4397888,1
105,8.511871000000001,0.060043335,-3.9006653,1
106,7.8965607,-0.94551086,-3.6528625,1
107,6.991561999999999,-1.1406403,-3.8479919999999996,1
108,6.922119,-0.5061798,-4.3196564,1
109,6.149994,0.20729065,-4.701523,1
110,6.304428,-1.0257263,-3.5666809999999995,1
111,9.629974,-2.1545867999999997,-2.5742798,1
112,12.930374,-2.5472412,-3.5630797999999997,1
113,10.288376,-4.5691375999999995,-3.20755,1
114,9.647919,-0.91319275,-4.629699700000001,1
115,9.538986,-2.7567291000000003,-6.513946499999999,1
116,10.776794,-0.17936707,-3.9712982000000006,1
117,9.295975,-0.8641205,-3.417038,1
118,7.988739,-0.41520690000000005,-2.1193847999999997,1
119,6.689895599999999,0.5233306999999999,-1.2371216,1
120,7.2070313,1.2787018,-1.2155761999999999,1
121,7.731369,1.1673584,-2.658081,1
122,8.259293,0.16539001,-3.2051543999999996,1
123,8.454422000000001,0.019348145,-3.7821502999999996,1
124,8.367035000000001,0.42156982,-3.740265,1
125,7.707428,0.33537292,-3.70076,1
126,6.9496613,0.0049743652,-3.7294769999999997,1
127,7.0538025,0.009765625,-3.994049,1
128,6.4887695,-0.5851898,-3.5894165,1
129,5.5981293,-0.27633667,-3.1309357,1
130,4.008376999999999,0.076812744,-3.3392334000000004,1
131,4.350754,0.42156982,-3.433792,1
132,3.9784546,0.4000244,-4.210724,1
133,3.8383942,0.26235962,-4.4872437000000005,1
134,4.124496499999999,-0.14346313,-4.4142303,1
135,4.624893,-0.02734375,-5.1935425,1
136,6.630035400000001,-0.49899292,-6.2733154,1
137,10.167465,-1.0376892,-6.167984,1
138,10.54335,-3.7000427000000005,-5.535904,1
139,11.548919999999999,-1.5799866000000002,-2.6616668999999997,1
140,6.8443146,-0.95150757,-2.0846709999999997,1
141,5.3335724,-0.91319275,-4.3088837,1
142,5.991974,-1.4566803,-7.3411407,1
143,7.020294,-1.7044830000000002,-8.394592,1
144,8.891357000000001,-0.7120819,-7.2453613,1
145,10.438019,-0.6474456999999999,-7.511123700000001,1
146,9.130783000000001,-0.012969971,-7.369872999999999,1
147,6.936493,0.4000244,-7.163971000000001,1
148,6.1619720000000004,0.15820313,-6.777297999999999,1
149,7.264496,-0.7192688,-6.385848999999999,1
150,7.2908325,-1.5416718,-6.104538,1
151,7.573349,-2.0779723999999997,-6.898208599999999,1
152,9.206192,-2.3317566000000003,-7.227417,1
153,8.119232,-1.4937897,-8.150375,1
154,7.4991302,-0.6977234,-7.5374603,1
155,7.029861500000001,-0.39245605,-6.358322,1
156,7.2345733999999995,-0.7480011,-5.7465972999999995,1
157,7.706222500000001,-1.1011353000000002,-5.9105988,1
158,7.5051117,-0.40083313,-6.0590363,1
159,7.512298599999999,-0.14704895,-5.7705383,1
160,7.3363190000000005,0.13186646,-5.636459400000001,1
161,7.8881836,-0.50857544,-5.6711884,1
162,9.542587,-1.2435913,-5.6759644,1
163,11.997833,-1.3836517,-5.6915283,1
164,14.747573999999998,-0.6618042,-5.459289599999999,1
165,15.676529,-1.2280273000000002,-4.480072,1
166,13.475052,-0.27633667,-4.603363,1
167,12.756789999999999,-0.05607605,-4.228668,1
168,10.223724,0.80345154,-3.9341888,1
169,8.472366000000001,-0.7910919,-2.3408507999999997,1
170,7.8355103,-2.190506,-0.590683,1
171,6.4396973,-1.9163666000000001,0.08088684,1
172,6.494766,-0.6977234,0.49150085,1
173,7.0897217,0.22285461,0.40649414,1
174,8.24852,-0.06324768,-0.37879944,1
175,8.641159,-0.27754209999999996,-0.9438324,1
176,8.787216,-0.5444945999999999,-0.8755951,1
177,9.412094,-0.67855835,-0.81933594,1
178,10.296753,-0.32182312,-1.0779113999999999,1
179,11.042541499999999,-0.29908752,-1.064743,1
180,10.422455000000001,0.16299438,-0.30458070000000004,1
181,9.708984,-0.03691101,0.5944519,1
182,8.994308,-0.22845459,1.1235657,1
183,8.619614,-0.7276459,1.4563598999999998,1
184,8.5047,-1.0795898000000002,1.7065582,1
185,8.24852,-1.1035309,1.5545197,1
186,8.156342,-0.8677063,1.2013702,1
187,8.716583,-0.48582458,0.9751281999999999,1
188,9.258865,-0.1877594,0.8721771,1
189,9.372589,-0.19972229,0.9212494000000001,1
190,9.200211,-0.19613647,1.1618652,1
191,9.137955,-0.13388062,1.3091125,1
192,9.096069,0.1330719,1.6215515,1
193,9.103241,0.23721313,1.9723053,1
194,9.291183,-0.078811646,1.9914551,1
195,9.47435,-0.49182129999999996,2.3458099999999997,1
196,9.342667,-0.76116943,2.472702,1
197,8.96199,-0.91200256,2.2883452999999996,1
198,8.554977000000001,-0.9215698,1.8059081999999997,1
199,10.151900999999999,-0.7767334,2.3134766,1
200,10.563705,-0.42956543,1.8945006999999998,1
201,10.039383,-0.033325195,1.686203,1
202,8.678268,0.18214417,1.2791901,1
203,8.046204,0.0049743652,1.2803802,1
204,8.240128,-0.46308900000000003,1.0409698,1
205,9.226547,-0.94551086,0.69021606,1
206,10.649902,-1.3860473999999998,0.21138,1
207,11.316680999999999,-1.2711333999999999,-0.51527405,1
208,10.071701,-0.8473511,-0.7606659,1
209,9.125992,-0.51934814,0.43043518,1
210,7.886993400000001,-0.8317870999999999,0.8015441999999999,1
211,7.9121246,-0.5049895999999999,1.2696075,1
212,8.595673,-0.2607727,1.3893127,1
213,9.07811,0.25517273,1.3881226,1
214,9.431244,0.43832397,1.0565186000000002,1
215,9.476746,-0.18536377,0.8913269,1
216,8.234146,-0.7551727,-0.18247986,1
217,10.303939999999999,-1.5321045,2.4032592999999998,1
218,11.037765499999999,-1.3154297,1.4635468,1
219,9.410903999999999,0.16419983,1.1822205,1
220,8.459197999999999,-0.124313354,2.0525208,1
221,7.942062400000001,-1.1885223,3.0233612,1
222,8.5082855,-2.2156372,3.0652618,1
223,9.243300999999999,-2.324585,2.409256,1
224,8.594482000000001,-1.2866973999999998,0.81710815,1
225,8.458008,-0.48703003,-0.21958923,1
226,8.161133,-0.9826355,0.22094727,1
227,8.4448395,-0.9562988000000001,0.12397766,1
228,8.814743,-0.5349121,0.9092865,1
229,9.513855,-0.8353881999999999,0.8195038,1
230,9.14035,-0.8665161,0.8314666999999999,1
231,9.676651,-0.73243713,1.2097473,1
232,10.234511999999999,-0.41639709999999996,1.0481415,1
233,9.560532,-0.2320404,1.0122375,1
234,8.786011,-0.36611938,1.3713684,1
235,9.085281,-0.7108916999999999,1.2265167,1
236,9.345061999999999,-1.1777496,1.0194092,1
237,9.311539,-1.3920441000000001,0.80992126,1
238,9.188232000000001,-1.225647,0.60401917,1
239,9.306747,-1.2866973999999998,0.57170105,1
240,9.572510000000001,-1.4399261,0.31910706,1
241,9.777206,-1.2878876,0.43762207,1
242,9.556946,-1.0149536,0.69859314,1
243,8.898544000000001,-0.8892517,0.54296875,1
244,8.286819,-0.7707366999999999,0.6459198,1
245,8.523849499999999,-0.799469,1.0062408,1
246,9.3546295,-0.97065735,1.1918030000000002,1
247,10.118393,-0.9155884,0.8829498,1
248,10.20697,-0.64624023,0.44480896,1
249,9.717361,-0.3254242,0.28199768,1
250,9.281616,-0.31584167,0.38615417,1
251,9.017059,-0.5157623,0.5190277,1
252,8.964386,-0.44752502,0.43643188,1
253,9.027832,-0.41879272,0.2233429,1
254,9.135558999999999,-0.47027588,-0.018478394,1
255,9.384567,-0.45829773,-0.05558777,1
256,9.5354,-0.4487152,-0.24951172,1
257,9.585678,-0.25,-0.71398926,1
258,9.276825,-0.22486877,-0.94862366,1
259,9.189438,-0.11352539,-1.2012024,1
260,9.207397,0.016952515,-1.3664093000000002,1
261,9.311539,0.11392212,-1.440628,1
262,9.404907000000001,-0.04888916,-1.4418182,1
263,9.337875,-0.19493103,-1.4502106000000001,1
264,9.160706,-0.17698670000000002,-1.4909058000000002,1
265,9.090073,-0.10635376,-1.516037,1
266,9.07811,-0.050079346,-1.4897003,1
267,9.051772999999999,0.04447937,-1.4298553,1
268,9.015854,0.28390503,-1.5878754,1
269,9.020645,0.35932922,-1.6393433000000002,1
270,9.070922999999999,0.30426025,-1.6333618,1
271,9.167892,0.2300415,-1.6405487,1
272,9.262466,0.22285461,-1.6848296999999999,1
273,9.273239,0.2515869,-1.6249847,1
274,9.127182000000001,0.3102417,-1.5124511999999999,1
275,9.054169,0.32939148,-1.3436583999999998,1
276,9.105637,0.25875854,-1.3245087,1
277,9.085281,0.22164917,-1.3568268,1
278,9.161896,0.25517273,-1.4825287,1
279,9.276825,0.3222046,-1.7051849,1
280,9.301956,0.41677856,-1.8799591,1
281,9.239716,0.45628357,-2.0355835,1
282,9.148727000000001,0.57121277,-1.9290466,1
283,9.208588,0.6681670999999999,-1.7422943,1
284,9.171478,0.5568390000000001,-1.7506714,1
285,9.090073,0.49220276,-1.8392639,1
286,8.7608795,0.38327026,-1.7590485,1
287,8.752487,0.4658661,-1.6537169999999999,1
288,8.965575999999999,0.73521423,-1.7698363999999998,1
289,9.092467999999998,1.0081482,-1.8943328999999998,1
290,9.111618,1.0380707,-1.9877014,1
291,9.088882,0.92674255,-2.2247314,1
292,9.25528,0.77711487,-2.1744537,1
293,9.274429,0.74957275,-1.9194641,1
294,9.141556,0.512558,-2.069107,1
295,9.025436000000001,0.4658661,-1.9314422999999998,1
296,9.076903999999999,0.4084015,-1.871582,1
297,9.146347,0.27552795,-1.9338379,1
298,9.115219,0.13186646,-2.014038,1
299,9.039795,0.04447937,-1.9649506,1
300,9.007477,0.045684814000000004,-1.8943328999999998,1
301,8.90213,0.060043335,-1.6800537,1
302,8.97995,0.045684814000000004,-1.4621735,1
303,9.029022,0.06364441,-1.3759766000000002,1
304,9.06015,0.15222168,-1.4609833,1
305,9.249298,0.079193115,-1.361618,1
306,9.234924000000001,0.12348938,-1.2790222,1
307,9.357025,0.17376709,-1.2981719999999999,1
308,9.39534,0.23960876,-1.3364716,1
309,9.355835,0.23602295,-1.2203674,1
310,9.285202,0.31503296,-1.1988068,1
311,9.209793,0.43234253,-1.2143707000000001,1
312,9.172684,0.52931213,-1.2838135,1
313,9.090073,0.5855713,-1.353241,1
314,9.072113,0.5592345999999999,-1.3987273999999998,1
315,9.051772999999999,0.53289795,-1.4789276000000002,1
316,9.0733185,0.50057983,-1.4741516000000001,1
317,9.099655,0.46228027,-1.4549866000000002,1
318,9.086487,0.4287567,-1.4861145,1
319,9.025436000000001,0.42515564,-1.4585876,1
320,9.169083,0.35932922,-1.4753418,1
321,9.220566,0.33299255,-1.571106,1
322,9.197815,0.34255979999999997,-1.5196381,1
323,9.185837,0.28869629999999996,-1.3975372,1
324,9.228943,0.21087646,-1.3316956,1
325,9.227737,0.23242188,-1.3197173999999998,1
326,9.181061,0.2635498,-1.3735962,1
327,9.13916,0.34136963,-1.3987273999999998,1
328,9.086487,0.36650085,-1.4250641000000002,1
329,9.0793,0.37727356,-1.432251,1
330,9.116408999999999,0.44671629999999996,-1.416687,1
331,9.085281,0.44671629999999996,-1.4549866000000002,1
332,9.127182000000001,0.44311523,-1.4753418,1
333,9.155914,0.44192505,-1.4992828,1
334,9.130783000000001,0.4359436,-1.5208282,1
335,9.122391,0.43952942,-1.550766,1
336,9.137955,0.41319275,-1.5232238999999999,1
337,9.15831,0.40361023,-1.5878754,1
338,9.167892,0.40242004,-1.6034393,1
339,9.142746,0.39762878,-1.5830841,1
340,9.169083,0.4000244,-1.5771027,1
341,9.143951,0.3904419,-1.452591,1
342,9.123596000000001,0.46347046,-1.4729462,1
343,9.15831,0.46466064,-1.4705504999999999,1
344,9.116408999999999,0.49578857,-1.4250641000000002,1
345,9.125992,0.46945190000000003,-1.4059143,1
346,9.122391,0.4287567,-1.4418182,1
347,9.149933,0.41198729999999995,-1.4861145,1
348,9.146347,0.40600586,-1.48732,1
349,9.157119999999999,0.43354797,-1.4095001,1
350,9.161896,0.4000244,-1.4394226,1
351,9.197815,0.36889648,-1.4753418,1
352,9.147537,0.34616090000000005,-1.5363921999999999,1
353,9.117614999999999,0.31503296,-1.5052643,1
354,9.191833500000001,0.31143188,-1.6381531,1
355,9.164291,0.29109192,-1.6728668000000002,1
356,9.117614999999999,0.31861877,-1.5938568000000002,1
357,9.145142,0.28271484,-1.5567474,1
358,9.149933,0.24679565,-1.4933014,1
359,9.149933,0.20010376,-1.5926513999999998,1
360,9.161896,0.2815094,-1.6513214,1
361,9.154724,0.39523315,-1.7578582999999999,1
362,9.102051,0.5257263000000001,-1.7758179,1
363,9.081696,0.5771941999999999,-1.6824341,1
364,9.081696,0.49099729999999997,-1.6608886999999999,1
365,9.07811,0.45388794,-1.5878754,1
366,9.074508999999999,0.38685608,-1.5782928,1
367,9.082901,0.3509369,-1.579483,1
368,9.111618,0.3282013,-1.634552,1
369,9.13916,0.34735107,-1.5866699,1
370,9.151123,0.3509369,-1.5806885,1
371,9.172684,0.34735107,-1.6249847,1
372,9.130783000000001,0.36889648,-1.6082153000000001,1
373,9.146347,0.37010193,-1.6058197,1
374,9.154724,0.38565063,-1.5926513999999998,1
375,9.108032000000001,0.37487793,-1.5735016000000002,1
376,9.1128235,0.37487793,-1.5950469999999999,1
377,9.094864,0.37249756,-1.571106,1
378,9.124786,0.32580566,-1.531601,1
379,9.105637,0.36291504,-1.5699158000000002,1
380,9.054169,0.47184753,-1.6776581000000002,1
381,9.324707,0.66578674,-1.6752625,1
382,9.301956,0.754364,-1.74469,1
383,9.327103,0.635849,-1.7015991000000001,1
384,9.203796,0.38685608,-1.6297760000000001,1
385,9.076903999999999,0.21208191,-1.4992828,1
386,9.105637,0.14624023,-1.4358368000000001,1
387,9.081696,0.076812744,-1.456192,1
388,9.026627000000001,0.09236145,-1.5292052999999999,1
389,9.048172000000001,0.15701294,-1.4717559999999998,1
390,9.17627,0.21087646,-1.4358368000000001,1
391,9.21936,0.2803192,-1.440628,1
392,9.146347,0.39164734,-1.4920959999999999,1
393,9.129578,0.51493835,-1.4334412,1
394,9.084091,0.57240295,-1.3149261,1
395,9.128387,0.541275,-1.2969818000000002,1
396,9.124786,0.576004,-1.3352814,1
397,9.146347,0.5568390000000001,-1.3436583999999998,1
398,9.128387,0.5065613,-1.3508453,1
399,9.170288000000001,0.48143005,-1.3783722,1
400,9.142746,0.46107483,-1.4250641000000002,1
401,9.133179,0.43354797,-1.4693604,1
402,9.103241,0.417984,-1.5040741000000002,1
403,9.106842,0.41079712,-1.4885101,1
404,9.100845,0.36170959999999996,-1.452591,1
405,9.127182000000001,0.40361023,-1.4753418,1
406,9.182250999999999,0.46347046,-1.5136566,1
407,9.201400999999999,0.48382568,-1.5016785,1
408,9.17746,0.54008484,-1.5040741000000002,1
409,9.153519000000001,0.5305023,-1.5064697,1
410,9.142746,0.51374817,-1.4980927,1
411,9.12001,0.50416565,-1.4897003,1
412,9.109222,0.48860168,-1.4286499,1
413,9.14035,0.47305298,-1.4490051000000002,1
414,9.127182000000001,0.47543335,-1.5100555,1
415,9.137955,0.47065735,-1.4717559999999998,1
416,9.124786,0.50057983,-1.3891448999999998,1
417,9.163101,0.45269775,-1.4418182,1
418,9.167892,0.40600586,-1.535202,1
419,9.149933,0.42636108,-1.4861145,1
420,9.147537,0.43354797,-1.4837189,1
421,9.157119999999999,0.41198729999999995,-1.5603333000000001,1
422,9.172684,0.39164734,-1.511261,1
423,9.151123,0.37010193,-1.456192,1
424,9.154724,0.36531067,-1.4621735,1
425,9.155914,0.43473816,-1.4705504999999999,1
426,9.149933,0.51135254,-1.4849243,1
427,9.116408999999999,0.5245209,-1.5435791,1
428,9.127182000000001,0.48143005,-1.5387878000000001,1
429,9.147537,0.44311523,-1.535202,1
430,9.1128235,0.46945190000000003,-1.480133,1
431,9.115219,0.43354797,-1.4789276000000002,1
432,9.124786,0.4299469,-1.4597778000000001,1
433,9.160706,0.39762878,-1.4956969999999998,1
434,9.149933,0.42755127,-1.4861145,1
435,9.14035,0.4407196,-1.5088654,1
436,9.142746,0.44911194,-1.4693604,1
437,9.145142,0.41198729999999995,-1.4442138999999998,1
438,9.148727000000001,0.41438293,-1.4585876,1
439,9.14035,0.43473816,-1.4490051000000002,1
440,9.153519000000001,0.43354797,-1.4454193000000002,1
441,9.114014,0.43952942,-1.4442138999999998,1
442,9.149933,0.45388794,-1.3999176000000002,1
443,9.165497,0.41198729999999995,-1.4334412,1
444,9.17746,0.44311523,-1.4861145,1
445,9.15831,0.46107483,-1.4226685,1
446,9.141556,0.47184753,-1.4262542999999999,1
447,9.125992,0.43473816,-1.4226685,1
448,9.151123,0.41079712,-1.4789276000000002,1
449,9.143951,0.44311523,-1.4633789,1
450,9.163101,0.51016235,-1.4549866000000002,1
451,9.154724,0.48980713,-1.4430237,1
452,9.203796,0.4479065,-1.5196381,1
453,9.092467999999998,0.4658661,-1.4849243,1
454,9.114014,0.45388794,-1.416687,1
455,9.15831,0.43713379999999996,-1.5088654,1
456,9.135558999999999,0.46228027,-1.5723114,1
457,9.102051,0.44551086,-1.432251,1
458,9.137955,0.41198729999999995,-1.3879546999999999,1
459,9.15831,0.41558838,-1.4298553,1
460,9.190628,0.42755127,-1.4130858999999998,1
461,9.143951,0.44192505,-1.4837189,1
462,9.106842,0.46228027,-1.5052643,1
463,9.085281,0.4658661,-1.447815,1
464,9.13916,0.45269775,-1.4430237,1
465,9.137955,0.46107483,-1.4095001,1
466,9.128387,0.4299469,-1.4274597,1
467,9.181061,0.45988464,-1.447815,1
468,9.152328500000001,0.44192505,-1.440628,1
469,9.121201,0.43832397,-1.4490051000000002,1
470,9.145142,0.4479065,-1.4298553,1
471,9.137955,0.40960693,-1.4226685,1
472,9.152328500000001,0.42636108,-1.4023132,1
473,9.136764999999999,0.42755127,-1.3963318,1
474,9.123596000000001,0.45509338,-1.4190826,1
475,9.141556,0.43234253,-1.4274597,1
476,9.153519000000001,0.47065735,-1.4645691,1
477,9.146347,0.4479065,-1.456192,1
478,9.146347,0.44311523,-1.4214783000000002,1
479,9.159514999999999,0.42277527,-1.416687,1
480,9.145142,0.43713379999999996,-1.4502106000000001,1
481,9.142746,0.44311523,-1.4286499,1
482,9.157119999999999,0.46107483,-1.4669647,1
483,9.149933,0.45748900000000003,-1.4454193000000002,1
484,9.135558999999999,0.45149229999999996,-1.4657593,1
485,9.117614999999999,0.45748900000000003,-1.4023132,1
486,9.137955,0.46347046,-1.4107056,1
487,9.142746,0.46228027,-1.4837189,1
488,9.117614999999999,0.49220276,-1.4430237,1
489,9.17746,0.43234253,-1.4645691,1
490,9.181061,0.43354797,-1.5136566,1
491,9.151123,0.42277527,-1.5471648999999998,1
492,9.124786,0.42755127,-1.4154816000000001,1
493,9.124786,0.45748900000000003,-1.3688049,1
494,9.179855,0.44311523,-1.3256989,1
495,9.146347,0.46945190000000003,-1.3496399,1
496,9.085281,0.44671629999999996,-1.3783722,1
497,9.114014,0.43713379999999996,-1.3304901000000002,1
498,9.153519000000001,0.43952942,-1.3855591,1
499,9.175064,0.45867920000000006,-1.3867645,1
500,9.164291,0.50057983,-1.4418182,1
501,9.164291,0.5233306999999999,-1.3879546999999999,1
502,9.161896,0.4479065,-1.4274597,1
503,9.146347,0.42037964,-1.4573822,1
504,9.117614999999999,0.39762878,-1.4382324,1
505,9.131973,0.40242004,-1.4214783000000002,1
506,9.142746,0.41558838,-1.4202728,1
507,9.125992,0.42277527,-1.4490051000000002,1
508,9.15831,0.44551086,-1.4621735,1
509,9.135558999999999,0.44192505,-1.4633789,1
510,9.154724,0.4287567,-1.4813232,1
511,9.129578,0.47782898,-1.4190826,1
512,9.118805,0.48143005,-1.4035187,1
513,9.135558999999999,0.48143005,-1.4334412,1
514,9.160706,0.46945190000000003,-1.4585876,1
515,9.155914,0.45388794,-1.4502106000000001,1
516,9.127182000000001,0.50057983,-1.4346466,1
517,9.135558999999999,0.46347046,-1.480133,1
518,9.154724,0.48860168,-1.5280151000000002,1
519,9.160706,0.47782898,-1.4920959999999999,1
520,9.146347,0.48860168,-1.5016785,1
521,9.122391,0.46826172,-1.452591,1
522,9.169083,0.41677856,-1.4442138999999998,1
523,9.135558999999999,0.41319275,-1.5088654,1
524,9.076903999999999,0.42755127,-1.5124511999999999,1
525,9.130783000000001,0.42755127,-1.5040741000000002,1
526,9.149933,0.39164734,-1.5423737,1
527,9.123596000000001,0.40361023,-1.5447693,1
528,9.134369,0.42156982,-1.4238739,1
529,9.161896,0.4299469,-1.4142914,1
530,9.14035,0.41198729999999995,-1.432251,1
531,9.0733185,0.42037964,-1.5040741000000002,1
532,9.091277999999999,0.40361023,-1.4849243,1
533,9.084091,0.45388794,-1.5591431,1
534,9.106842,0.45269775,-1.5890656,1
535,9.130783000000001,0.45149229999999996,-1.5699158000000002,1
536,9.129578,0.43952942,-1.5328064,1
537,9.142746,0.42515564,-1.5818787,1
538,9.199005,0.43115234,-1.614212,1
539,9.163101,0.43952942,-1.6441345,1
540,9.1128235,0.45509338,-1.5866699,1
541,9.123596000000001,0.4084015,-1.6094208,1
542,9.123596000000001,0.42277527,-1.590271,1
543,9.115219,0.40960693,-1.5675201,1
544,9.111618,0.41558838,-1.5220337,1
545,9.103241,0.4072113,-1.5866699,1
546,9.115219,0.39283752,-1.5483704,1
547,9.137955,0.4287567,-1.5423737,1
548,9.13916,0.46228027,-1.5459747,1
549,9.166687,0.45628357,-1.5375976999999998,1
550,9.14035,0.4407196,-1.526825,1
551,9.137955,0.42396545,-1.5328064,1
552,9.155914,0.42277527,-1.5399933000000001,1
553,9.124786,0.41319275,-1.5531616000000001,1
554,9.104446000000001,0.46107483,-1.5136566,1
555,9.115219,0.4407196,-1.4777374,1
556,9.151123,0.43234253,-1.5184326000000001,1
557,9.123596000000001,0.45509338,-1.511261,1
558,9.111618,0.41677856,-1.4980927,1
559,9.179855,0.42277527,-1.5411834999999998,1
560,9.145142,0.46945190000000003,-1.6058197,1
561,9.122391,0.46705627,-1.4980927,1
562,9.135558999999999,0.44911194,-1.4741516000000001,1
563,9.173874,0.42515564,-1.4454193000000002,1
564,9.166687,0.43234253,-1.4514008,1
565,9.117614999999999,0.42277527,-1.4825287,1
566,9.102051,0.45628357,-1.4933014,1
567,9.094864,0.44911194,-1.4956969999999998,1
568,9.102051,0.43832397,-1.550766,1
569,9.129578,0.42156982,-1.5220337,1
570,9.148727000000001,0.40960693,-1.480133,1
571,9.163101,0.42636108,-1.5136566,1
572,9.127182000000001,0.39881897,-1.511261,1
573,9.149933,0.41677856,-1.4933014,1
574,9.133179,0.43832397,-1.5004883,1
575,9.165497,0.44432068,-1.4992828,1
576,9.143951,0.42515564,-1.4980927,1
577,9.105637,0.39523315,-1.456192,1
578,9.153519000000001,0.43115234,-1.4621735,1
579,9.137955,0.43713379999999996,-1.4609833,1
580,9.136764999999999,0.42636108,-1.5016785,1
581,9.12001,0.39881897,-1.4909058000000002,1
582,9.124786,0.4299469,-1.4861145,1
583,9.141556,0.4287567,-1.4693604,1
584,9.109222,0.4407196,-1.4825287,1
585,9.148727000000001,0.43832397,-1.4885101,1
586,9.145142,0.44311523,-1.511261,1
587,9.17627,0.46228027,-1.5447693,1
588,9.130783000000001,0.44311523,-1.4669647,1
589,9.145142,0.4191742,-1.4537964,1
590,9.175064,0.40960693,-1.5052643,1
591,9.09845,0.44311523,-1.4944916000000001,1
592,9.147537,0.45030212,-1.4837189,1
593,9.184647,0.4658661,-1.5531616000000001,1
594,9.130783000000001,0.46347046,-1.5771027,1
595,9.143951,0.44311523,-1.4741516000000001,1
596,9.142746,0.42156982,-1.4142914,1
597,9.175064,0.43115234,-1.4430237,1
598,9.129578,0.4191742,-1.4214783000000002,1
599,9.131973,0.46347046,-1.4346466,1
600,9.149933,0.417984,-1.4346466,1
601,9.125992,0.40600586,-1.4645691,1
602,9.12001,0.45149229999999996,-1.4861145,1
603,9.151123,0.48980713,-1.4729462,1
604,9.137955,0.43115234,-1.4358368000000001,1
605,9.181061,0.45988464,-1.4310455,1
606,9.149933,0.43473816,-1.4729462,1
607,9.137955,0.43713379999999996,-1.4621735,1
608,9.130783000000001,0.48262024,-1.4466094999999999,1
609,9.173874,0.4191742,-1.4418182,1
610,9.124786,0.3964386,-1.3963318,1
611,9.13916,0.4407196,-1.416687,1
612,9.149933,0.45509338,-1.4047089,1
613,9.123596000000001,0.42396545,-1.447815,1
614,9.157119999999999,0.42277527,-1.440628,1
615,9.122391,0.43832397,-1.4310455,1
616,9.173874,0.44671629999999996,-1.4142914,1
617,9.130783000000001,0.42755127,-1.5016785,1
618,9.134369,0.42277527,-1.4346466,1
619,9.160706,0.41438293,-1.4286499,1
620,9.131973,0.4299469,-1.5064697,1
621,9.123596000000001,0.42755127,-1.4705504999999999,1
622,9.124786,0.44551086,-1.456192,1
623,9.135558999999999,0.4299469,-1.4310455,1
624,9.152328500000001,0.4084015,-1.4789276000000002,1
625,9.096069,0.45149229999999996,-1.4585876,1
626,9.115219,0.42636108,-1.4358368000000001,1
627,9.15831,0.4766388,-1.4753418,1
628,9.189438,0.48860168,-1.571106,1
629,9.146347,0.45988464,-1.4633789,1
630,9.155914,0.35693359999999996,-1.4274597,1
631,9.170288000000001,0.38565063,-1.4514008,1
632,9.161896,0.38925170000000003,-1.432251,1
633,9.129578,0.378479,-1.4154816000000001,1
634,9.102051,0.42396545,-1.4083099,1
635,9.157119999999999,0.4359436,-1.3975372,1
636,9.151123,0.4084015,-1.4693604,1
637,9.14035,0.46705627,-1.4920959999999999,1
638,9.195419000000001,0.45748900000000003,-1.4693604,1
639,9.109222,0.4766388,-1.4885101,1
640,9.13916,0.38565063,-1.4849243,1
641,9.23851,0.4012146,-1.4633789,1
642,9.29837,0.39164734,-1.516037,1
643,9.234924000000001,0.38206482,-1.5771027,1
644,9.254074000000001,0.39164734,-1.5962524,1
645,9.371399,0.39762878,-1.5627289,1
646,9.416885,0.35214233,-1.5471648999999998,1
647,9.149933,0.51374817,-1.3712006,1
648,9.109222,0.49578857,-1.5028687,1
649,8.98114,0.75556946,-1.6213837,1
650,9.092467999999998,0.79267883,-1.4226685,1
651,9.284011999999999,0.517334,-0.8887634,1
652,8.876999,0.61550903,-1.0204468,1
653,8.663910000000001,0.6645813,-0.9845276,1
654,8.48674,0.517334,-0.7056121999999999,1
655,8.547791,0.21806335,-0.72117615,1
656,9.002686,0.23841858,-0.88397217,1
657,9.738907000000001,0.42636108,-1.0192413,1
658,10.025008999999999,0.4299469,-1.5028687,1
659,9.69342,0.62028503,-1.6381531,1
660,9.218169999999999,0.7292328,-1.064743,1
661,8.867416,0.8441466999999999,-0.6984253,1
662,8.630386,0.7842865,-0.9845276,1
663,8.766861,0.6035309,-1.4394226,1
664,8.997894,0.45388794,-1.6321564,1
665,9.194229,0.43713379999999996,-1.6285706,1
666,9.275619500000001,0.5640259,-1.526825,1
667,9.278015,0.7627411000000001,-1.5639343,1
668,9.31633,0.85731506,-1.5639343,1
669,9.245697,0.6645813,-1.6333618,1
670,9.058945,0.43354797,-1.5758972,1
671,9.014664,0.33657837,-1.3759766000000002,1
672,8.990723,0.33657837,-1.282608,1
673,9.091277999999999,0.32939148,-1.2658539,1
674,9.262466,0.34495544,-1.3209229,1
675,9.289992999999999,0.44671629999999996,-1.4370421999999998,1
676,9.197815,0.5341034,-1.4071045,1
677,9.064941000000001,0.55085754,-1.2873993000000001,1
678,9.052963,0.53889465,-1.2071991000000002,1
679,9.129578,0.58078,-1.2550812,1
680,9.147537,0.60113525,-1.3053589,1
681,9.169083,0.62628174,-1.3759766000000002,1
682,9.13916,0.7005005,-1.3939362,1
683,9.104446000000001,0.7507782,-1.4154816000000001,1
684,9.124786,0.73161316,-1.3879546999999999,1
685,9.134369,0.6346588000000001,-1.3460541000000001,1
686,9.143951,0.58317566,-1.3831635,1
687,9.068527,0.54966736,-1.3460541000000001,1
688,8.98114,0.5676116999999999,-1.480133,1
689,9.011063,0.59036255,-1.3484497,1
690,9.279221000000001,0.6238861,-1.3628082000000001,1
691,9.425262,0.5017699999999999,-1.4741516000000001,1
692,9.340271000000001,0.5077667,-1.4298553,1
693,9.092467999999998,0.48980713,-1.3556366000000002,1
694,9.075714,0.5628357,-1.2766266000000002,1
695,9.0182495,0.60832214,-1.3592224,1
696,9.032608,0.6394501,-1.3005676000000002,1
697,9.014664,0.5592345999999999,-1.274231,1
698,9.090073,0.5472716999999999,-1.3675995,1
699,9.164291,0.5077667,-1.4035187,1
700,9.239716,0.41438293,-1.526825,1
701,9.236130000000001,0.40600586,-1.5962524,1
702,9.167892,0.4287567,-1.571106,1
703,9.155914,0.51493835,-1.4813232,1
704,9.14035,0.51493835,-1.447815,1
705,9.064941000000001,0.47305298,-1.440628,1
706,9.056564,0.48382568,-1.3807677999999999,1
707,9.102051,0.55804443,-1.4657593,1
708,9.197815,0.5736084,-1.4729462,1
709,9.242111,0.6238861,-1.3879546999999999,1
710,9.169083,0.5771941999999999,-1.2957763999999998,1
711,9.137955,0.5628357,-1.2993622,1
712,9.130783000000001,0.5376892,-1.3292999,1
713,9.096069,0.50416565,-1.4418182,1
714,9.12001,0.517334,-1.4681548999999998,1
715,9.135558999999999,0.51135254,-1.4681548999999998,1
716,9.108032000000001,0.5257263000000001,-1.4849243,1
717,9.094864,0.5089569,-1.5495605,1
718,9.117614999999999,0.45748900000000003,-1.6285706,1
719,9.141556,0.43354797,-1.6285706,1
720,9.129578,0.45030212,-1.6453247,1
721,9.115219,0.49578857,-1.6237793,1
722,9.133179,0.5376892,-1.6249847,1
723,9.037399,0.5077667,-1.6429291000000001,1
724,9.104446000000001,0.49220276,-1.6668854,1
725,9.154724,0.46705627,-1.6596985,1
726,9.146347,0.5185394,-1.6716613999999999,1
727,9.122391,0.5305023,-1.5818787,1
728,9.1128235,0.5520477,-1.452591,1
729,9.135558999999999,0.51493835,-1.4262542999999999,1
730,9.110428,0.56163025,-1.4202728,1
731,9.111618,0.55804443,-1.4346466,1
732,9.129578,0.58078,-1.3723907,1
733,9.102051,0.5819854999999999,-1.361618,1
734,9.121201,0.5843811,-1.3484497,1
735,9.127182000000001,0.5819854999999999,-1.3867645,1
736,9.145142,0.576004,-1.3855591,1
737,9.131973,0.52093506,-1.4286499,1
738,9.137955,0.54248047,-1.4549866000000002,1
739,9.143951,0.5460663,-1.48732,1
740,9.160706,0.54248047,-1.4909058000000002,1
741,9.143951,0.512558,-1.4861145,1
742,9.1128235,0.5376892,-1.5028687,1
743,9.124786,0.57121277,-1.4944916000000001,1
744,9.123596000000001,0.5664215,-1.4885101,1
745,9.100845,0.56881714,-1.5375976999999998,1
746,9.092467999999998,0.5568390000000001,-1.5004883,1
747,9.110428,0.5460663,-1.4514008,1
748,9.123596000000001,0.5640259,-1.4059143,1
749,9.146347,0.5771941999999999,-1.416687,1
750,9.172684,0.57121277,-1.4083099,1
751,9.141556,0.5556488,-1.3843689,1
752,9.149933,0.5664215,-1.4214783000000002,1
753,9.137955,0.5568390000000001,-1.4226685,1
754,9.07811,0.5281066999999999,-1.4262542999999999,1
755,9.154724,0.5257263000000001,-1.4154816000000001,1
756,9.184647,0.541275,-1.4753418,1
757,9.153519000000001,0.52212524,-1.5184326000000001,1
758,9.080505,0.5185394,-1.4298553,1
759,9.096069,0.541275,-1.3951416,1
760,9.116408999999999,0.53889465,-1.3688049,1
761,9.135558999999999,0.5376892,-1.4190826,1
762,9.13916,0.56163025,-1.4130858999999998,1
763,9.118805,0.59155273,-1.4992828,1
764,9.127182000000001,0.5771941999999999,-1.4621735,1
765,9.121201,0.5879669,-1.4944916000000001,1
766,9.131973,0.5700073,-1.4537964,1
767,9.094864,0.59994507,-1.4286499,1
768,9.153519000000001,0.57121277,-1.4514008,1
769,9.130783000000001,0.59155273,-1.4753418,1
770,9.12001,0.6035309,-1.4310455,1
771,9.115219,0.5951538000000001,-1.4573822,1
772,9.121201,0.6035309,-1.4214783000000002,1
773,9.117614999999999,0.56521606,-1.4059143,1
774,9.125992,0.5520477,-1.3783722,1
775,9.129578,0.5568390000000001,-1.4250641000000002,1
776,9.127182000000001,0.59155273,-1.4118958000000001,1
777,9.115219,0.5676116999999999,-1.4394226,1
778,9.135558999999999,0.57121277,-1.4394226,1
779,9.12001,0.5556488,-1.4382324,1
780,9.15831,0.5556488,-1.4454193000000002,1
781,9.148727000000001,0.56163025,-1.4741516000000001,1
782,9.106842,0.57958984,-1.4298553,1
783,9.148727000000001,0.5640259,-1.4430237,1
784,9.170288000000001,0.5520477,-1.5196381,1
785,9.076903999999999,0.56881714,-1.480133,1
786,9.157119999999999,0.5460663,-1.416687,1
787,9.187042,0.5927581999999999,-1.555542,1
788,9.136764999999999,0.57240295,-1.5435791,1
789,9.118805,0.57121277,-1.4107056,1
790,9.125992,0.52931213,-1.3987273999999998,1
791,9.110428,0.541275,-1.3843689,1
792,9.125992,0.5448761,-1.4071045,1
793,9.13916,0.5640259,-1.3688049,1
794,9.147537,0.5987395999999999,-1.4047089,1
795,9.154724,0.60113525,-1.4298553,1
796,9.142746,0.59754944,-1.4238739,1
797,9.160706,0.58078,-1.4130858999999998,1
798,9.166687,0.56881714,-1.4334412,1
799,9.128387,0.536499,-1.4573822,1
800,9.121201,0.5676116999999999,-1.5052643,1
801,9.123596000000001,0.58677673,-1.4693604,1
802,9.136764999999999,0.57240295,-1.4980927,1
803,9.134369,0.5472716999999999,-1.4645691,1
804,9.135558999999999,0.541275,-1.4502106000000001,1
805,9.124786,0.5592345999999999,-1.3867645,1
806,9.12001,0.56044006,-1.3831635,1
807,9.130783000000001,0.58078,-1.4454193000000002,1
808,9.135558999999999,0.5472716999999999,-1.4107056,1
809,9.159514999999999,0.58677673,-1.4118958000000001,1
810,9.129578,0.5747985999999999,-1.3915405,1
811,9.135558999999999,0.5568390000000001,-1.3675995,1
812,9.121201,0.54008484,-1.3831635,1
813,9.169083,0.56044006,-1.4250641000000002,1
814,9.155914,0.55804443,-1.4262542999999999,1
815,9.137955,0.59155273,-1.4190826,1
816,9.137955,0.5819854999999999,-1.4023132,1
817,9.175064,0.5771941999999999,-1.4585876,1
818,9.13916,0.5640259,-1.480133,1
819,9.111618,0.60113525,-1.4573822,1
820,9.17627,0.56881714,-1.5052643,1
821,9.154724,0.56163025,-1.574707,1
822,9.09845,0.5987395999999999,-1.5220337,1
823,9.093674,0.576004,-1.4214783000000002,1
824,9.125992,0.54367065,-1.3939362,1
825,9.130783000000001,0.55085754,-1.4142914,1
826,9.124786,0.5819854999999999,-1.4178772,1
827,9.104446000000001,0.63105774,-1.4095001,1
828,9.105637,0.5448761,-1.3628082000000001,1
829,9.045776,0.62028503,-1.4130858999999998,1
830,9.169083,0.6238861,-1.4226685,1
831,9.118805,0.62986755,-1.4621735,1
832,9.222961,0.60113525,-1.516037,1
833,9.149933,0.6143036000000001,-1.4178772,1
834,9.124786,0.5951538000000001,-1.4681548999999998,1
835,9.117614999999999,0.56044006,-1.4753418,1
836,9.0972595,0.5532531999999999,-1.4753418,1
837,9.075714,0.56163025,-1.4418182,1
838,9.102051,0.5736084,-1.3915405,1
839,9.086487,0.5556488,-1.3699951000000001,1
840,9.167892,0.5352935999999999,-1.361618,1
841,9.151123,0.49099729999999997,-1.3640136999999999,1
842,9.17746,0.541275,-1.3520355,1
843,9.15831,0.541275,-1.432251,1
844,9.205002,0.5879669,-1.4430237,1
845,9.17746,0.6549988,-1.4837189,1
846,9.121201,0.6059265,-1.5531616000000001,1
847,9.06134,0.60832214,-1.5878754,1
848,9.063736,0.6286621,-1.6189879999999999,1
849,9.074508999999999,0.6214905,-1.6429291000000001,1
850,9.091277999999999,0.63345337,-1.5627289,1
851,9.035003999999999,0.62268066,-1.5411834999999998,1
852,9.064941000000001,0.5843811,-1.4705504999999999,1
853,9.102051,0.53170776,-1.401123,1
854,9.187042,0.5460663,-1.4430237,1
855,9.179855,0.57240295,-1.432251,1
856,9.240905999999999,0.5628357,-1.4035187,1
857,9.245697,0.5736084,-1.5758972,1
858,9.164291,0.6143036000000001,-1.6357574,1
859,9.09845,0.60832214,-1.5483704,1
860,9.063736,0.56881714,-1.5758972,1
861,9.084091,0.62628174,-1.574707,1
862,9.068527,0.6430359,-1.5615386999999998,1
863,9.015854,0.67774963,-1.5447693,1
864,9.06015,0.6382445999999999,-1.5148468000000002,1
865,9.082901,0.6274719,-1.5064697,1
866,9.136764999999999,0.59394836,-1.4825287,1
867,9.155914,0.59155273,-1.4490051000000002,1
868,9.203796,0.58317566,-1.4298553,1
869,9.206192,0.58078,-1.48732,1
870,9.143951,0.65859985,-1.5519562,1
871,9.085281,0.6573944,-1.5962524,1
872,9.063736,0.64064026,-1.5914612,1
873,9.069733,0.67655945,-1.6010437,1
874,9.075714,0.6430359,-1.5926513999999998,1
875,9.0733185,0.6645813,-1.5172424,1
876,9.048172000000001,0.6382445999999999,-1.4442138999999998,1
877,9.051772999999999,0.6717681999999999,-1.4142914,1
878,9.115219,0.6466217,-1.3759766000000002,1
879,9.147537,0.64183044,-1.3628082000000001,1
880,9.17746,0.6538086,-1.3664093000000002,1
881,9.172684,0.6538086,-1.3807677999999999,1
882,9.152328500000001,0.6825409,-1.4238739,1
883,9.123596000000001,0.66218567,-1.4837189,1
884,9.09845,0.6466217,-1.5675201,1
885,9.094864,0.6250763,-1.6094208,1
886,9.076903999999999,0.6059265,-1.6261749,1
887,9.06015,0.60472107,-1.579483,1
888,9.074508999999999,0.5640259,-1.5447693,1
889,9.110428,0.5197295999999999,-1.5124511999999999,1
890,9.135558999999999,0.5376892,-1.4669647,1
891,9.133179,0.5077667,-1.5004883,1
892,9.181061,0.5161438,-1.4621735,1
893,9.171478,0.5065613,-1.3879546999999999,1
894,9.17746,0.512558,-1.3975372,1
895,9.145142,0.5987395999999999,-1.3699951000000001,1
896,9.100845,0.6250763,-1.4178772,1
897,9.152328500000001,0.6071167,-1.4729462,1
898,9.149933,0.63105774,-1.5938568000000002,1
899,9.118805,0.6573944,-1.5280151000000002,1
900,9.090073,0.6131134,-1.5256195,1
901,9.108032000000001,0.57240295,-1.4693604,1
902,9.109222,0.56521606,-1.4693604,1
903,9.086487,0.5592345999999999,-1.4885101,1
904,9.117614999999999,0.58677673,-1.4705504999999999,1
905,9.128387,0.55444336,-1.480133,1
906,9.104446000000001,0.58917236,-1.5004883,1
907,9.142746,0.59754944,-1.5328064,1
908,9.115219,0.64782715,-1.5292052999999999,1
909,9.104446000000001,0.6274719,-1.5363921999999999,1
910,9.129578,0.6430359,-1.5447693,1
911,9.121201,0.6394501,-1.5950469999999999,1
912,9.080505,0.6238861,-1.5495605,1
913,9.09845,0.5700073,-1.5675201,1
914,9.091277999999999,0.5376892,-1.5866699,1
915,9.074508999999999,0.55085754,-1.5256195,1
916,9.114014,0.5448761,-1.5292052999999999,1
917,9.128387,0.59994507,-1.5603333000000001,1
918,9.142746,0.576004,-1.5830841,1
919,9.115219,0.58078,-1.5950469999999999,1
920,9.123596000000001,0.6071167,-1.6010437,1
921,9.110428,0.5927581999999999,-1.614212,1
922,9.081696,0.6166991999999999,-1.6022339,1
923,9.091277999999999,0.60113525,-1.6130066,1
924,9.102051,0.6035309,-1.6716613999999999,1
925,9.127182000000001,0.59994507,-1.6704712,1
926,9.122391,0.58917236,-1.7614441000000003,1
927,9.096069,0.59036255,-1.7339171999999998,1
928,9.054169,0.59036255,-1.7039948,1
929,9.042191,0.59394836,-1.6680756,1
930,9.084091,0.57958984,-1.6405487,1
931,9.149933,0.58317566,-1.6884308000000001,1
932,9.133179,0.5927581999999999,-1.6680756,1
933,9.075714,0.6346588000000001,-1.6154022,1
934,9.131973,0.6346588000000001,-1.6189879999999999,1
935,9.118805,0.635849,-1.6824341,1
936,9.07811,0.60472107,-1.6285706,1
937,9.087677000000001,0.6214905,-1.5878754,1
938,9.099655,0.60832214,-1.5459747,1
939,9.122391,0.55804443,-1.5435791,1
940,9.0972595,0.54966736,-1.550766,1
941,9.068527,0.5855713,-1.5339966,1
942,9.09845,0.60472107,-1.5328064,1
943,9.076903999999999,0.60113525,-1.574707,1
944,9.12001,0.61550903,-1.5818787,1
945,9.092467999999998,0.6214905,-1.526825,1
946,9.0972595,0.6178894,-1.5579376,1
947,9.141556,0.6382445999999999,-1.5339966,1
948,9.093674,0.63345337,-1.5687103,1
949,9.105637,0.6382445999999999,-1.5998383,1
950,9.127182000000001,0.596344,-1.5363921999999999,1
951,9.123596000000001,0.56163025,-1.5519562,1
952,9.114014,0.5736084,-1.5088654,1
953,9.09845,0.5927581999999999,-1.5375976999999998,1
954,9.124786,0.59994507,-1.516037,1
955,9.100845,0.6274719,-1.6034393,1
956,9.110428,0.6107178000000001,-1.6321564,1
957,9.110428,0.6095123,-1.5639343,1
958,9.169083,0.58917236,-1.4956969999999998,1
959,9.116408999999999,0.5855713,-1.4502106000000001,1
960,9.128387,0.6059265,-1.4107056,1
961,9.093674,0.6166991999999999,-1.4454193000000002,1
962,9.110428,0.60472107,-1.4920959999999999,1
963,9.131973,0.60472107,-1.4837189,1
964,9.121201,0.5819854999999999,-1.5483704,1
965,9.096069,0.59754944,-1.4885101,1
966,9.146347,0.55085754,-1.4765472,1
967,9.161896,0.5269165,-1.4861145,1
968,9.116408999999999,0.541275,-1.5016785,1
969,9.075714,0.5341034,-1.447815,1
970,9.157119999999999,0.536499,-1.5363921999999999,1
971,9.14035,0.52931213,-1.650116,1
972,9.141556,0.56521606,-1.5842743000000001,1
973,9.100845,0.5532531999999999,-1.5100555,1
974,9.147537,0.5700073,-1.4418182,1
975,9.129578,0.61190796,-1.4190826,1
976,9.094864,0.62628174,-1.4645691,1
977,9.056564,0.61550903,-1.4825287,1
978,9.07811,0.62268066,-1.5244293,1
979,9.13916,0.58677673,-1.5208282,1
980,9.137955,0.5747985999999999,-1.5040741000000002,1
981,9.137955,0.5700073,-1.511261,1
982,9.133179,0.5269165,-1.5088654,1
983,9.104446000000001,0.5376892,-1.5328064,1
984,9.121201,0.5592345999999999,-1.5495605,1
985,9.096069,0.60472107,-1.5196381,1
986,9.134369,0.6023407,-1.516037,1
987,9.14035,0.59994507,-1.4514008,1
988,9.142746,0.62028503,-1.4310455,1
989,9.104446000000001,0.64782715,-1.3987273999999998,1
990,9.111618,0.66218567,-1.4154816000000001,1
991,9.104446000000001,0.6549988,-1.4346466,1
992,9.102051,0.6633911,-1.432251,1
993,9.108032000000001,0.64064026,-1.4262542999999999,1
994,9.102051,0.6238861,-1.4274597,1
995,9.114014,0.64183044,-1.4980927,1
996,9.090073,0.62986755,-1.5387878000000001,1
997,9.155914,0.6071167,-1.5627289,1
998,9.137955,0.6107178000000001,-1.5806885,1
999,9.117614999999999,0.60113525,-1.6309662,1
1000,9.146347,0.56881714,-1.6082153000000001,1
1001,9.091277999999999,0.5951538000000001,-1.574707,1
1002,9.063736,0.61190796,-1.4920959999999999,1
1003,9.129578,0.60113525,-1.526825,1
1004,9.124786,0.596344,-1.5986481000000001,1
1005,9.09845,0.6143036000000001,-1.5818787,1
1006,9.087677000000001,0.64064026,-1.5196381,1
1007,9.164291,0.63705444,-1.5280151000000002,1
1008,9.115219,0.65979004,-1.5663147,1
1009,9.128387,0.6382445999999999,-1.4430237,1
1010,9.127182000000001,0.6071167,-1.4537964,1
1011,9.123596000000001,0.6095123,-1.4346466,1
1012,9.096069,0.58917236,-1.4071045,1
1013,9.06015,0.6166991999999999,-1.4765472,1
1014,9.080505,0.60113525,-1.5040741000000002,1
1015,9.080505,0.635849,-1.5723114,1
1016,9.136764999999999,0.6322631999999999,-1.590271,1
1017,9.128387,0.64782715,-1.574707,1
1018,9.114014,0.65979004,-1.5423737,1
1019,9.137955,0.6382445999999999,-1.5435791,1
1020,9.0972595,0.6238861,-1.526825,1
1021,9.082901,0.6849365,-1.5735016000000002,1
1022,9.105637,0.6442260999999999,-1.5878754,1
1023,9.050568,0.6609955,-1.5938568000000002,1
1024,9.062546000000001,0.64901733,-1.5771027,1
1025,9.048172000000001,0.6526184,-1.5962524,1
1026,9.102051,0.64782715,-1.5579376,1
1027,9.122391,0.6897278,-1.5040741000000002,1
1028,9.157119999999999,0.68852234,-1.5387878000000001,1
1029,9.110428,0.7184448,-1.5974426000000002,1
1030,9.123596000000001,0.6957091999999999,-1.6177979,1
1031,9.110428,0.6861267,-1.6261749,1
1032,9.127182000000001,0.63105774,-1.5435791,1
1033,9.142746,0.6238861,-1.5483704,1
1034,9.102051,0.6143036000000001,-1.5687103,1
1035,9.067337,0.5747985999999999,-1.5459747,1
1036,9.046982,0.536499,-1.5148468000000002,1
1037,9.045776,0.5520477,-1.5064697,1
1038,9.090073,0.5305023,-1.5519562,1
1039,9.09845,0.56521606,-1.5076599,1
1040,9.157119999999999,0.5747985999999999,-1.4585876,1
1041,9.232529,0.5879669,-1.5471648999999998,1
1042,9.178664999999999,0.6286621,-1.5603333000000001,1
1043,9.151123,0.56881714,-1.5830841,1
1044,9.2313385,0.5460663,-1.6776581000000002,1
1045,9.133179,0.51374817,-1.8165131,1
1046,9.063736,0.49578857,-1.7303313999999999,1
1047,8.993117999999999,0.5161438,-1.6166076999999999,1
1048,9.014664,0.56881714,-1.5387878000000001,1
1049,9.037399,0.5269165,-1.5375976999999998,1
1050,9.024231,0.56163025,-1.4681548999999998,1
1051,9.026627000000001,0.5987395999999999,-1.4083099,1
1052,9.072113,0.6526184,-1.3891448999999998,1
1053,9.124786,0.6681670999999999,-1.4537964,1
1054,9.121201,0.71006775,-1.4250641000000002,1
1055,9.1128235,0.7016906999999999,-1.3723907,1
1056,9.207397,0.7471770999999999,-1.4933014,1
1057,9.250488,0.7866820999999999,-1.7039948,1
1058,9.094864,0.74598694,-1.8703918000000002,1
1059,9.00029,0.7507782,-1.9362335,1
1060,8.861435,0.7471770999999999,-1.9601746,1
1061,8.819533999999999,0.7819060999999999,-1.9410095,1
1062,8.856644000000001,0.73760986,-1.9398193,1
1063,8.984726,0.71965027,-1.9745331000000002,1
1064,9.155914,0.66578674,-2.0427703999999998,1
1065,9.239716,0.6178894,-2.1038208,1
1066,9.224152,0.5843811,-2.076294,1
1067,9.093674,0.56881714,-2.076294,1
1068,9.048172000000001,0.55085754,-2.0990295,1
1069,9.024231,0.55804443,-2.0248108,1
1070,9.005081,0.55804443,-2.0044556,1
1071,8.963181,0.56521606,-1.9158783,1
1072,8.982330000000001,0.5556488,-1.7494811999999997,1
1073,9.134369,0.56163025,-1.6812439,1
1074,9.210983,0.59994507,-1.6632843000000002,1
1075,9.197815,0.61909485,-1.7027893,1
1076,9.111618,0.61909485,-1.6824341,1
1077,9.036209,0.61909485,-1.7614441000000003,1
1078,8.940445,0.6609955,-1.7398987000000001,1
1079,8.97995,0.67056274,-1.8129272,1
1080,9.123596000000001,0.7076720999999999,-1.9146729,1
1081,9.091277999999999,0.62986755,-1.9960785,1
1082,9.06134,0.517334,-1.9541779,1
1083,9.048172000000001,0.45030212,-2.005661,1
1084,9.015854,0.43473816,-1.9386139,1
1085,8.989517,0.4191742,-1.90271,1
1086,8.996704,0.41677856,-1.8093261999999999,1
1087,9.012267999999999,0.45388794,-1.7710266,1
1088,9.052963,0.47065735,-1.7458801,1
1089,9.134369,0.5245209,-1.7614441000000003,1
1090,9.170288000000001,0.5460663,-1.8296814,1
1091,9.149933,0.57958984,-1.8308868000000003,1
1092,9.116408999999999,0.60113525,-1.8584136999999998,1
1093,9.091277999999999,0.6789550999999999,-1.887146,1
1094,9.062546000000001,0.7124634,-1.9098968999999997,1
1095,9.033813,0.65979004,-1.9972839,1
1096,9.041,0.6562041999999999,-1.9829101999999998,1
1097,8.990723,0.61550903,-2.014038,1
1098,8.964386,0.6035309,-1.9661560000000002,1
1099,8.942825,0.6178894,-1.9613647,1
1100,8.985930999999999,0.6274719,-1.9494019,1
1101,9.041,0.6322631999999999,-1.9410095,1
1102,9.100845,0.67774963,-1.9577789,1
1103,9.104446000000001,0.68852234,-1.9362335,1
1104,9.07811,0.6669769,-1.9158783,1
1105,9.044586,0.67774963,-1.8452453999999998,1
1106,9.027832,0.6945038,-1.8619994999999998,1
1107,9.037399,0.7136688,-1.8536224,1
1108,9.0182495,0.6957091999999999,-1.8213043000000002,1
1109,8.997894,0.68852234,-1.8332825000000001,1
1110,9.0733185,0.6466217,-1.7865906000000003,1
1111,9.007477,0.6143036000000001,-1.7961731,1
1112,9.046982,0.6274719,-1.7889862,1
1113,9.103241,0.61190796,-1.8260956000000002,1
1114,9.109222,0.6143036000000001,-1.8656006,1
1115,9.085281,0.60472107,-1.8524323,1
1116,9.06015,0.58917236,-1.7243346999999998,1
1117,9.044586,0.5664215,-1.7578582999999999,1
1118,9.055359,0.57240295,-1.7578582999999999,1
1119,9.066132000000001,0.6346588000000001,-1.7877808000000002,1
1120,9.037399,0.6178894,-1.8141174,1
1121,9.046982,0.6166991999999999,-1.8296814,1
1122,9.062546000000001,0.59394836,-1.8560181,1
1123,9.056564,0.5843811,-1.8512268,1
1124,9.076903999999999,0.5843811,-1.7997589,1
1125,9.0577545,0.53170776,-1.7985535,1
1126,9.076903999999999,0.54248047,-1.7901764,1
1127,9.086487,0.5376892,-1.8404541,1
1128,9.086487,0.58078,-1.808136,1
1129,9.056564,0.5484619000000001,-1.8404541,1
1130,9.069733,0.56163025,-1.8237,1
1131,9.066132000000001,0.57240295,-1.8129272,1
1132,9.038605,0.596344,-1.7650452,1
1133,9.058945,0.5987395999999999,-1.8105316000000002,1
1134,9.039795,0.5771941999999999,-1.8021544999999999,1
1135,9.074508999999999,0.60832214,-1.8237,1
1136,9.0733185,0.6178894,-1.8105316000000002,1
1137,9.066132000000001,0.58917236,-1.8009491000000002,1
1138,9.064941000000001,0.6214905,-1.753067,1
1139,9.084091,0.59036255,-1.7973633000000002,1
1140,9.082901,0.6131134,-1.8260956000000002,1
1141,9.054169,0.6095123,-1.8117218000000002,1
1142,9.021835000000001,0.6562041999999999,-1.7830047999999998,1
1143,9.076903999999999,0.6394501,-1.7937775000000002,1
1144,9.094864,0.6143036000000001,-1.8105316000000002,1
1145,9.026627000000001,0.62628174,-1.7566681,1
1146,9.064941000000001,0.6107178000000001,-1.7746124,1
1147,9.082901,0.6346588000000001,-1.8835601999999998,1
1148,9.084091,0.6238861,-1.8667908,1
1149,9.0577545,0.56521606,-1.7770080000000001,1
1150,9.06015,0.53170776,-1.7327118000000001,1
1151,9.075714,0.5592345999999999,-1.7494811999999997,1
1152,9.082901,0.5927581999999999,-1.7566681,1
1153,9.021835000000001,0.6071167,-1.7650452,1
1154,9.06134,0.6071167,-1.7626495,1
1155,9.050568,0.59394836,-1.8392639,1
1156,9.051772999999999,0.60832214,-1.8129272,1
1157,9.044586,0.5783844,-1.7710266,1
1158,9.070922999999999,0.5927581999999999,-1.7542725,1
1159,9.085281,0.60472107,-1.7973633000000002,1
1160,9.116408999999999,0.5676116999999999,-1.7937775000000002,1
1161,9.075714,0.63105774,-1.8033447,1
1162,9.088882,0.5927581999999999,-1.7470856,1
1163,9.072113,0.58317566,-1.7255401999999997,1
1164,9.063736,0.5879669,-1.753067,1
1165,9.062546000000001,0.596344,-1.7746124,1
1166,9.06134,0.60113525,-1.7578582999999999,1
1167,9.066132000000001,0.61550903,-1.7817993000000003,1
1168,9.06134,0.5927581999999999,-1.7626495,1
1169,9.062546000000001,0.5568390000000001,-1.8045502,1
1170,9.09845,0.58078,-1.7830047999999998,1
1171,9.081696,0.58677673,-1.7973633000000002,1
1172,9.085281,0.6107178000000001,-1.7674408,1
1173,9.051772999999999,0.5747985999999999,-1.7315216,1
1174,9.062546000000001,0.576004,-1.8045502,1
1175,9.06015,0.59994507,-1.8093261999999999,1
1176,9.036209,0.596344,-1.7662354,1
1177,9.038605,0.58917236,-1.7542725,1
1178,9.116408999999999,0.5783844,-1.7734221999999997,1
1179,9.068527,0.59155273,-1.7889862,1
1180,9.058945,0.5951538000000001,-1.7877808000000002,1
1181,9.088882,0.5664215,-1.7794037,1
1182,9.099655,0.59394836,-1.8548278999999999,1
1183,9.055359,0.58917236,-1.8380584999999998,1
1184,9.023041000000001,0.5664215,-1.7482758000000003,1
1185,9.092467999999998,0.56521606,-1.7411041,1
1186,9.106842,0.5771941999999999,-1.7566681,1
1187,9.070922999999999,0.5556488,-1.7830047999999998,1
1188,9.066132000000001,0.5771941999999999,-1.7770080000000001,1
1189,9.030228,0.58917236,-1.7806091,1
1190,9.074508999999999,0.5568390000000001,-1.8093261999999999,1
1191,9.046982,0.57240295,-1.7961731,1
1192,9.069733,0.59036255,-1.7614441000000003,1
1193,9.06015,0.5819854999999999,-1.7351074,1
1194,9.0793,0.6107178000000001,-1.7566681,1
1195,9.084091,0.5736084,-1.8045502,1
1196,9.0577545,0.5628357,-1.8009491000000002,1
1197,9.081696,0.5843811,-1.7482758000000003,1
1198,9.082901,0.59155273,-1.7877808000000002,1
1199,9.06015,0.5568390000000001,-1.7602539000000001,1
1200,9.064941000000001,0.58677673,-1.7518768,1
1201,9.0793,0.6023407,-1.784195,1
1202,9.069733,0.5676116999999999,-1.7901764,1
1203,9.0577545,0.56881714,-1.7746124,1
1204,9.081696,0.5855713,-1.7913818,1
1205,9.058945,0.5843811,-1.8272858,1
1206,9.085281,0.57121277,-1.8440552,1
1207,9.054169,0.60832214,-1.8356628000000001,1
1208,9.0733185,0.6131134,-1.8536224,1
1209,9.038605,0.5771941999999999,-1.8344726999999998,1
1210,9.074508999999999,0.59754944,-1.8548278999999999,1
1211,9.055359,0.5783844,-1.8619994999999998,1
1212,9.046982,0.59155273,-1.8452453999999998,1
1213,9.045776,0.55804443,-1.847641,1
1214,9.068527,0.56163025,-1.8895416,1
1215,9.00029,0.58917236,-1.863205,1
1216,9.067337,0.5819854999999999,-1.8141174,1
1217,9.096069,0.56521606,-1.8955231,1
1218,9.06015,0.57121277,-1.8751678,1
1219,9.030228,0.5472716999999999,-1.8536224,1
1220,9.056564,0.5736084,-1.8392639,1
1221,9.074508999999999,0.5197295999999999,-1.8763733,1
1222,9.025436000000001,0.58078,-1.9134827,1
1223,9.002686,0.59394836,-1.8967285,1
1224,9.038605,0.59394836,-1.9194641,1
1225,9.050568,0.6286621,-1.9685516,1
1226,9.049377,0.5927581999999999,-1.9793243000000003,1
1227,9.06015,0.57958984,-1.9386139,1
1228,9.06134,0.55444336,-1.8979186999999997,1
1229,9.070922999999999,0.6035309,-1.926651,1
1230,9.030228,0.6095123,-1.9158783,1
1231,9.052963,0.61550903,-1.8979186999999997,1
1232,9.069733,0.5987395999999999,-1.8763733,1
1233,9.081696,0.56044006,-1.8763733,1
1234,9.069733,0.596344,-1.8380584999999998,1
1235,9.032608,0.5640259,-1.8560181,1
1236,9.021835000000001,0.59155273,-1.8153229,1
1237,9.037399,0.5987395999999999,-1.8033447,1
1238,9.029022,0.5783844,-1.8237,1
1239,9.030228,0.60832214,-1.7913818,1
1240,9.06134,0.5819854999999999,-1.792572,1
1241,9.069733,0.596344,-1.7961731,1
1242,9.091277999999999,0.5664215,-1.792572,1
1243,9.063736,0.5843811,-1.7937775000000002,1
1244,9.090073,0.6214905,-1.8105316000000002,1
1245,9.032608,0.60113525,-1.7506714,1
1246,9.049377,0.5951538000000001,-1.7183533,1
1247,9.108032000000001,0.59394836,-1.7327118000000001,1
1248,9.067337,0.59036255,-1.7817993000000003,1
1249,9.063736,0.59754944,-1.6944122,1
1250,9.160706,0.58677673,-1.7698363999999998,1
1251,9.093674,0.596344,-1.8416595000000002,1
1252,9.056564,0.5783844,-1.808136,1
1253,9.050568,0.5676116999999999,-1.7279358,1
1254,9.055359,0.56163025,-1.7351074,1
1255,9.091277999999999,0.5245209,-1.7698363999999998,1
1256,9.06015,0.5448761,-1.7518768,1
1257,9.048172000000001,0.5532531999999999,-1.7554626,1
1258,9.072113,0.5676116999999999,-1.7554626,1
1259,9.0733185,0.57240295,-1.768631,1
1260,9.0577545,0.5927581999999999,-1.7183533,1
1261,9.087677000000001,0.5843811,-1.7398987000000001,1
1262,9.121201,0.5520477,-1.7398987000000001,1
1263,9.086487,0.5879669,-1.7351074,1
1264,9.09845,0.57121277,-1.74469,1
1265,9.084091,0.59994507,-1.7123718,1
1266,9.075714,0.6178894,-1.7171631,1
1267,9.084091,0.596344,-1.7087708,1
1268,9.080505,0.5736084,-1.6872253000000001,1
1269,9.076903999999999,0.5783844,-1.7051849,1
1270,9.068527,0.57240295,-1.7171631,1
1271,9.085281,0.5819854999999999,-1.7578582999999999,1
1272,9.096069,0.54966736,-1.7398987000000001,1
1273,9.103241,0.576004,-1.74469,1
1274,9.076903999999999,0.58917236,-1.7375029999999998,1
1275,9.0577545,0.59394836,-1.7518768,1
1276,9.074508999999999,0.5472716999999999,-1.7411041,1
1277,9.086487,0.59036255,-1.729126,1
1278,9.0733185,0.57121277,-1.7877808000000002,1
1279,9.075714,0.6035309,-1.7422943,1
1280,9.087677000000001,0.59394836,-1.7758179,1
1281,9.06134,0.59036255,-1.6956023999999998,1
1282,9.086487,0.5640259,-1.7171631,1
1283,9.106842,0.5736084,-1.7195586999999999,1
1284,9.030228,0.58917236,-1.6788483,1
1285,9.086487,0.57240295,-1.7303313999999999,1
1286,9.108032000000001,0.5987395999999999,-1.8057404,1
1287,9.092467999999998,0.6143036000000001,-1.7865906000000003,1
1288,9.050568,0.58078,-1.6956023999999998,1
1289,9.070922999999999,0.5568390000000001,-1.7123718,1
1290,9.100845,0.5257263000000001,-1.7099761999999998,1
1291,9.062546000000001,0.5484619000000001,-1.7243346999999998,1
1292,9.0733185,0.5927581999999999,-1.7398987000000001,1
1293,9.086487,0.59155273,-1.7231445,1
1294,9.07811,0.59754944,-1.7123718,1
1295,9.087677000000001,0.5771941999999999,-1.7267303,1
1296,9.068527,0.61909485,-1.7267303,1
1297,9.050568,0.57240295,-1.7075806,1
1298,9.082901,0.5927581999999999,-1.7159576,1
1299,9.094864,0.576004,-1.7183533,1
1300,9.093674,0.60113525,-1.7207488999999998,1
1301,9.07811,0.58078,-1.6884308000000001,1
1302,9.093674,0.541275,-1.697998,1
1303,9.09845,0.5592345999999999,-1.7147675,1
1304,9.06015,0.5628357,-1.7159576,1
1305,9.0793,0.5879669,-1.6932220000000002,1
1306,9.092467999999998,0.58317566,-1.6896209999999998,1
1307,9.070922999999999,0.56163025,-1.7087708,1
1308,9.063736,0.58078,-1.7339171999999998,1
1309,9.080505,0.5628357,-1.74469,1
1310,9.070922999999999,0.59994507,-1.729126,1
1311,9.094864,0.5855713,-1.7207488999999998,1
1312,9.069733,0.5987395999999999,-1.7434998,1
1313,9.092467999999998,0.6059265,-1.7267303,1
1314,9.076903999999999,0.5927581999999999,-1.7231445,1
1315,9.111618,0.6071167,-1.7207488999999998,1
1316,9.090073,0.6059265,-1.7159576,1
1317,9.066132000000001,0.57240295,-1.7171631,1
1318,9.072113,0.59754944,-1.6992035,1
1319,9.135558999999999,0.59394836,-1.6908264,1
1320,9.080505,0.60472107,-1.7111664,1
1321,9.044586,0.5747985999999999,-1.6884308000000001,1
1322,9.141556,0.60832214,-1.7279358,1
1323,9.09845,0.57121277,-1.7997589,1
1324,9.066132000000001,0.5628357,-1.7806091,1
1325,9.048172000000001,0.52093506,-1.6932220000000002,1
1326,9.086487,0.5269165,-1.697998,1
1327,9.108032000000001,0.5305023,-1.7135619999999998,1
1328,9.096069,0.56163025,-1.7303313999999999,1
1329,9.084091,0.56881714,-1.729126,1
1330,9.080505,0.57121277,-1.7027893,1
1331,9.062546000000001,0.56163025,-1.7039948,1
1332,9.049377,0.58317566,-1.7027893,1
1333,9.080505,0.5676116999999999,-1.6824341,1
1334,9.133179,0.5676116999999999,-1.6441345,1
1335,9.104446000000001,0.596344,-1.7363129000000002,1
1336,9.084091,0.55804443,-1.7099761999999998,1
1337,9.080505,0.5747985999999999,-1.6656799,1
1338,9.093674,0.5556488,-1.6441345,1
1339,9.103241,0.5520477,-1.634552,1
1340,9.088882,0.5783844,-1.6189879999999999,1
1341,9.093674,0.58677673,-1.614212,1
1342,9.094864,0.59994507,-1.6237793,1
1343,9.118805,0.6286621,-1.6441345,1
1344,9.096069,0.6059265,-1.6644897,1
1345,9.092467999999998,0.5855713,-1.6237793,1
1346,9.116408999999999,0.5951538000000001,-1.6369476,1
1347,9.096069,0.57240295,-1.6620941000000002,1
1348,9.114014,0.57240295,-1.6836395,1
1349,9.064941000000001,0.5484619000000001,-1.6884308000000001,1
1350,9.099655,0.5568390000000001,-1.7027893,1
1351,9.096069,0.57121277,-1.7219391,1
1352,9.105637,0.6059265,-1.7063903999999999,1
1353,9.117614999999999,0.5664215,-1.6944122,1
1354,9.054169,0.6095123,-1.7782135,1
1355,9.066132000000001,0.5676116999999999,-1.6884308000000001,1
1356,9.086487,0.6095123,-1.7219391,1
1357,9.12001,0.5676116999999999,-1.784195,1
1358,9.033813,0.5700073,-1.7674408,1
1359,9.009872,0.5879669,-1.7590485,1
1360,9.082901,0.5700073,-1.7830047999999998,1
1361,9.118805,0.5879669,-1.832077,1
1362,9.063736,0.6131134,-1.7734221999999997,1
1363,9.062546000000001,0.5879669,-1.7614441000000003,1
1364,9.068527,0.5736084,-1.7626495,1
1365,9.087677000000001,0.5747985999999999,-1.7542725,1
1366,9.006287,0.5843811,-1.8177185000000002,1
1367,9.013458,0.59994507,-1.8141174,1
1368,9.099655,0.6214905,-1.8763733,1
1369,9.075714,0.62628174,-1.8548278999999999,1
1370,9.0577545,0.5736084,-1.90271,1
1371,9.086487,0.5843811,-1.8284912,1
1372,9.0577545,0.5700073,-1.8165131,1
1373,9.050568,0.5568390000000001,-1.8524323,1
1374,9.046982,0.59994507,-1.7949677,1
1375,9.052963,0.5771941999999999,-1.7937775000000002,1
1376,9.104446000000001,0.5448761,-1.7758179,1
1377,9.117614999999999,0.56163025,-1.7506714,1
1378,9.070922999999999,0.5700073,-1.7590485,1
1379,9.087677000000001,0.6035309,-1.7267303,1
1380,9.069733,0.5819854999999999,-1.6788483,1
1381,9.074508999999999,0.57240295,-1.7231445,1
1382,9.088882,0.58078,-1.6896209999999998,1
1383,9.0733185,0.5592345999999999,-1.6848296999999999,1
1384,9.092467999999998,0.57240295,-1.6848296999999999,1
1385,9.074508999999999,0.5843811,-1.6573029,1
1386,9.064941000000001,0.576004,-1.7207488999999998,1
1387,9.088882,0.56044006,-1.7171631,1
1388,9.080505,0.58917236,-1.7315216,1
1389,9.066132000000001,0.57240295,-1.7434998,1
1390,9.072113,0.5640259,-1.697998,1
1391,9.067337,0.58677673,-1.650116,1
1392,9.114014,0.57121277,-1.7123718,1
1393,9.086487,0.5640259,-1.7542725,1
1394,9.084091,0.57121277,-1.6573029,1
1395,9.147537,0.5640259,-1.6848296999999999,1
1396,9.130783000000001,0.5771941999999999,-1.7662354,1
1397,9.087677000000001,0.5676116999999999,-1.7255401999999997,1
1398,9.058945,0.5664215,-1.6824341,1
1399,9.080505,0.54367065,-1.6944122,1
1400,9.105637,0.5819854999999999,-1.674057,1
1401,9.102051,0.5676116999999999,-1.7111664,1
1402,9.093674,0.58677673,-1.6848296999999999,1
1403,9.096069,0.57240295,-1.7135619999999998,1
1404,9.088882,0.5951538000000001,-1.7183533,1
1405,9.037399,0.58078,-1.6932220000000002,1
1406,9.081696,0.58677673,-1.6573029,1
1407,9.0733185,0.55085754,-1.658493,1
1408,9.092467999999998,0.52931213,-1.7255401999999997,1
1409,9.086487,0.56881714,-1.7470856,1
1410,9.12001,0.56163025,-1.7099761999999998,1
1411,9.086487,0.58917236,-1.7135619999999998,1
1412,9.0972595,0.5281066999999999,-1.7027893,1
1413,9.081696,0.54367065,-1.6824341,1
1414,9.058945,0.5843811,-1.6632843000000002,1
1415,9.085281,0.5819854999999999,-1.6920166,1
1416,9.099655,0.5628357,-1.7267303,1
1417,9.082901,0.5747985999999999,-1.7458801,1
1418,9.0972595,0.576004,-1.7267303,1
1419,9.100845,0.5736084,-1.753067,1
1420,9.0577545,0.5843811,-1.7351074,1
1421,9.068527,0.58917236,-1.7015991000000001,1
1422,9.062546000000001,0.57958984,-1.7135619999999998,1
1423,9.085281,0.6095123,-1.7087708,1
1424,9.100845,0.5927581999999999,-1.6956023999999998,1
1425,9.088882,0.5640259,-1.6872253000000001,1
1426,9.105637,0.5700073,-1.6728668000000002,1
1427,9.092467999999998,0.5747985999999999,-1.6896209999999998,1
1428,9.06134,0.58677673,-1.6776581000000002,1
1429,9.094864,0.5747985999999999,-1.6848296999999999,1
1430,9.121201,0.55804443,-1.697998,1
1431,9.041,0.5843811,-1.6465302,1
1432,9.088882,0.57121277,-1.6896209999999998,1
1433,9.130783000000001,0.56881714,-1.832077,1
1434,9.128387,0.6107178000000001,-1.7901764,1
1435,9.085281,0.58078,-1.7039948,1
1436,9.069733,0.54966736,-1.7075806,1
1437,9.116408999999999,0.5664215,-1.6908264,1
1438,9.102051,0.58078,-1.7303313999999999,1
1439,9.054169,0.6035309,-1.6908264,1
1440,9.0577545,0.5879669,-1.7327118000000001,1
1441,9.046982,0.6023407,-1.74469,1
1442,9.080505,0.59754944,-1.7123718,1
1443,9.105637,0.5855713,-1.7422943,1
1444,9.104446000000001,0.56044006,-1.6537169999999999,1
1445,9.081696,0.55085754,-1.6704712,1
1446,9.106842,0.576004,-1.6944122,1
1447,9.12001,0.56521606,-1.7303313999999999,1
1448,9.081696,0.5568390000000001,-1.6872253000000001,1
1449,9.069733,0.55444336,-1.6860351999999998,1
1450,9.090073,0.5640259,-1.6872253000000001,1
1451,9.070922999999999,0.53889465,-1.6956023999999998,1
1452,9.087677000000001,0.56163025,-1.6656799,1
1453,9.092467999999998,0.57958984,-1.6956023999999998,1
1454,9.088882,0.58677673,-1.7039948,1
1455,9.06134,0.58078,-1.6908264,1
1456,9.082901,0.5472716999999999,-1.7147675,1
1457,9.094864,0.5676116999999999,-1.658493,1
1458,9.085281,0.5736084,-1.674057,1
1459,9.0793,0.57240295,-1.6716613999999999,1
1460,9.064941000000001,0.5843811,-1.6992035,1
1461,9.104446000000001,0.57958984,-1.6417389,1
1462,9.090073,0.58917236,-1.6680756,1
1463,9.091277999999999,0.58677673,-1.6656799,1
1464,9.088882,0.56881714,-1.6860351999999998,1
1465,9.105637,0.5592345999999999,-1.7027893,1
1466,9.058945,0.56881714,-1.6405487,1
1467,9.090073,0.5747985999999999,-1.6800537,1
1468,9.122391,0.5640259,-1.6824341,1
1469,9.094864,0.5568390000000001,-1.7482758000000003,1
1470,9.030228,0.56881714,-1.7063903999999999,1
1471,9.096069,0.5472716999999999,-1.7470856,1
1472,9.134369,0.6214905,-1.8033447,1
1473,9.116408999999999,0.59036255,-1.7710266,1
1474,9.06134,0.55085754,-1.6537169999999999,1
1475,9.096069,0.53289795,-1.6393433000000002,1
1476,9.091277999999999,0.54248047,-1.6177979,1
1477,9.070922999999999,0.5664215,-1.650116,1
1478,9.056564,0.5951538000000001,-1.6704712,1
1479,9.0733185,0.5951538000000001,-1.7039948,1
1480,9.056564,0.5448761,-1.6944122,1
1481,9.072113,0.56163025,-1.6668854,1
1482,9.09845,0.56163025,-1.6620941000000002,1
1483,9.086487,0.5747985999999999,-1.6489258000000002,1
1484,9.087677000000001,0.5532531999999999,-1.6477203,1
1485,9.093674,0.5484619000000001,-1.6860351999999998,1
1486,9.094864,0.5987395999999999,-1.7135619999999998,1
1487,9.110428,0.56881714,-1.6920166,1
1488,9.074508999999999,0.5736084,-1.7051849,1
1489,9.0733185,0.56163025,-1.6920166,1
1490,9.066132000000001,0.5448761,-1.7231445,1
1491,9.092467999999998,0.5484619000000001,-1.7051849,1
1492,9.07811,0.5747985999999999,-1.7075806,1
1493,9.069733,0.56881714,-1.7434998,1
1494,9.080505,0.54966736,-1.7267303,1
1495,9.062546000000001,0.55804443,-1.7578582999999999,1
1496,9.094864,0.5855713,-1.7913818,1
1497,9.072113,0.56163025,-1.7494811999999997,1
1498,9.0733185,0.5352935999999999,-1.768631,1
1499,9.069733,0.5927581999999999,-1.7830047999999998,1
1500,9.0577545,0.5736084,-1.7734221999999997,1
1501,9.064941000000001,0.5676116999999999,-1.7817993000000003,1
1502,9.056564,0.55804443,-1.7506714,1
1503,9.052963,0.58677673,-1.8093261999999999,1
1504,9.055359,0.5987395999999999,-1.7949677,1
1505,9.051772999999999,0.5640259,-1.8260956000000002,1
1506,9.045776,0.57121277,-1.7937775000000002,1
1507,9.106842,0.56881714,-1.8093261999999999,1
1508,9.086487,0.57240295,-1.8488311999999998,1
1509,9.042191,0.5843811,-1.8811646,1
1510,9.019455,0.56163025,-1.8332825000000001,1
1511,9.111618,0.5927581999999999,-1.8847504000000002,1
1512,9.076903999999999,0.6035309,-1.8763733,1
1513,9.063736,0.6059265,-1.8536224,1
1514,9.038605,0.5484619000000001,-1.8416595000000002,1
1515,9.064941000000001,0.5460663,-1.808136,1
1516,9.06015,0.56521606,-1.7985535,1
1517,9.041,0.576004,-1.8057404,1
1518,9.048172000000001,0.6095123,-1.8105316000000002,1
1519,9.055359,0.5783844,-1.792572,1
1520,9.07811,0.5676116999999999,-1.7770080000000001,1
1521,9.080505,0.6035309,-1.7590485,1
1522,9.088882,0.6023407,-1.7482758000000003,1
1523,9.096069,0.58677673,-1.7339171999999998,1
1524,9.103241,0.5783844,-1.7327118000000001,1
1525,9.075714,0.5472716999999999,-1.7183533,1
1526,9.046982,0.5592345999999999,-1.6644897,1
1527,9.068527,0.58917236,-1.6441345,1
1528,9.063736,0.5448761,-1.650116,1
1529,9.0793,0.5472716999999999,-1.6046295,1
1530,9.110428,0.5855713,-1.6177979,1
1531,9.111618,0.5700073,-1.6058197,1
1532,9.104446000000001,0.60472107,-1.6189879999999999,1
1533,9.0972595,0.576004,-1.6177979,1
1534,9.105637,0.57958984,-1.6309662,1
1535,9.104446000000001,0.5736084,-1.6285706,1
1536,9.100845,0.576004,-1.6513214,1
1537,9.074508999999999,0.5628357,-1.6920166,1
1538,9.084091,0.58317566,-1.6596985,1
1539,9.080505,0.5771941999999999,-1.674057,1
1540,9.082901,0.56163025,-1.634552,1
1541,9.127182000000001,0.58317566,-1.6393433000000002,1
1542,9.106842,0.56044006,-1.6441345,1
1543,9.09845,0.57240295,-1.6680756,1
1544,9.066132000000001,0.5843811,-1.6381531,1
1545,9.108032000000001,0.5640259,-1.6489258000000002,1
1546,9.111618,0.55804443,-1.6788483,1
1547,9.043396000000001,0.5879669,-1.6429291000000001,1
1548,9.081696,0.59754944,-1.6118164,1
1549,9.149933,0.5927581999999999,-1.6836395,1
1550,9.124786,0.6166991999999999,-1.7267303,1
1551,9.064941000000001,0.56521606,-1.6477203,1
1552,9.090073,0.56044006,-1.5782928,1
1553,9.0793,0.5664215,-1.6213837,1
1554,9.096069,0.54008484,-1.5830841,1
1555,9.075714,0.55444336,-1.6046295,1
1556,9.084091,0.5987395999999999,-1.6010437,1
1557,9.092467999999998,0.5640259,-1.6357574,1
1558,9.093674,0.6131134,-1.6046295,1
1559,9.123596000000001,0.58317566,-1.6309662,1
1560,9.128387,0.58078,-1.6094208,1
1561,9.116408999999999,0.5472716999999999,-1.6201934999999998,1
1562,9.123596000000001,0.55804443,-1.5950469999999999,1
1563,9.096069,0.5843811,-1.5890656,1
1564,9.104446000000001,0.5783844,-1.5771027,1
1565,9.088882,0.5520477,-1.5974426000000002,1
1566,9.118805,0.5556488,-1.5986481000000001,1
1567,9.080505,0.56521606,-1.5830841,1
1568,9.09845,0.53289795,-1.6166076999999999,1
1569,9.108032000000001,0.58677673,-1.6465302,1
1570,9.094864,0.5951538000000001,-1.6381531,1
1571,9.115219,0.5843811,-1.6118164,1
1572,9.096069,0.53889465,-1.6297760000000001,1
1573,9.106842,0.5927581999999999,-1.6154022,1
1574,9.096069,0.5843811,-1.6309662,1
1575,9.102051,0.58677673,-1.6225891000000001,1
1576,9.088882,0.58677673,-1.6058197,1
1577,9.094864,0.55804443,-1.6082153000000001,1
1578,9.116408999999999,0.53889465,-1.6549072,1
1579,9.088882,0.5747985999999999,-1.6213837,1
1580,9.115219,0.5640259,-1.5926513999999998,1
1581,9.087677000000001,0.5472716999999999,-1.6189879999999999,1
1582,9.082901,0.6023407,-1.574707,1
1583,9.090073,0.5855713,-1.5950469999999999,1
1584,9.133179,0.5568390000000001,-1.6680756,1
1585,9.111618,0.56521606,-1.6573029,1
1586,9.067337,0.5951538000000001,-1.5962524,1
1587,9.121201,0.5700073,-1.6429291000000001,1
1588,9.122391,0.5736084,-1.7351074,1
1589,9.127182000000001,0.5640259,-1.6788483,1
1590,9.07811,0.5352935999999999,-1.614212,1
1591,9.105637,0.56163025,-1.5483704,1
1592,9.117614999999999,0.55804443,-1.6154022,1
1593,9.116408999999999,0.56881714,-1.6118164,1
1594,9.116408999999999,0.59994507,-1.614212,1
1595,9.092467999999998,0.6035309,-1.6130066,1
1596,9.06134,0.61550903,-1.6189879999999999,1
1597,9.074508999999999,0.5987395999999999,-1.5926513999999998,1
1598,9.082901,0.59036255,-1.6022339,1
1599,9.103241,0.5700073,-1.5471648999999998,1
1600,9.103241,0.58317566,-1.531601,1
1601,9.0972595,0.59754944,-1.5830841,1
1602,9.076903999999999,0.5987395999999999,-1.6118164,1
1603,9.105637,0.5676116999999999,-1.6201934999999998,1
1604,9.105637,0.55444336,-1.5806885,1
1605,9.137955,0.5556488,-1.5603333000000001,1
1606,9.091277999999999,0.5628357,-1.5423737,1
1607,9.066132000000001,0.59754944,-1.5339966,1
1608,9.092467999999998,0.576004,-1.5387878000000001,1
1609,9.099655,0.5520477,-1.5627289,1
1610,9.111618,0.5484619000000001,-1.550766,1
1611,9.102051,0.57958984,-1.6034393,1
1612,9.103241,0.5532531999999999,-1.6070251,1
1613,9.1128235,0.60832214,-1.6201934999999998,1
1614,9.100845,0.5472716999999999,-1.5914612,1
1615,9.086487,0.59036255,-1.590271,1
1616,9.105637,0.56521606,-1.5639343,1
1617,9.086487,0.58078,-1.5758972,1
1618,9.080505,0.5352935999999999,-1.5615386999999998,1
1619,9.118805,0.5460663,-1.5830841,1
1620,9.103241,0.57121277,-1.5842743000000001,1
1621,9.085281,0.54966736,-1.5878754,1
1622,9.115219,0.58917236,-1.6010437,1
1623,9.154724,0.58677673,-1.5663147,1
1624,9.12001,0.5771941999999999,-1.5890656,1
1625,9.076903999999999,0.5448761,-1.5675201,1
1626,9.128387,0.5376892,-1.5854796999999998,1
1627,9.169083,0.56163025,-1.7051849,1
1628,9.099655,0.5532531999999999,-1.6573029,1
1629,9.093674,0.5532531999999999,-1.6046295,1
1630,9.108032000000001,0.54966736,-1.6034393,1
1631,9.103241,0.5700073,-1.5950469999999999,1
1632,9.066132000000001,0.5568390000000001,-1.658493,1
1633,9.06134,0.5520477,-1.7171631,1
1634,9.0972595,0.55085754,-1.6357574,1
1635,9.094864,0.5592345999999999,-1.6716613999999999,1
1636,9.074508999999999,0.541275,-1.6596985,1
1637,9.086487,0.596344,-1.6644897,1
1638,9.084091,0.5592345999999999,-1.658493,1
1639,9.085281,0.56044006,-1.6369476,1
1640,9.115219,0.57121277,-1.7051849,1
1641,9.091277999999999,0.58917236,-1.7099761999999998,1
1642,9.090073,0.58317566,-1.6920166,1
1643,9.074508999999999,0.5233306999999999,-1.7219391,1
1644,9.063736,0.5664215,-1.7027893,1
1645,9.050568,0.5628357,-1.7099761999999998,1
1646,9.07811,0.56044006,-1.7087708,1
1647,9.102051,0.56163025,-1.7375029999999998,1
1648,9.072113,0.5484619000000001,-1.7554626,1
1649,9.069733,0.5592345999999999,-1.7590485,1
1650,9.109222,0.5484619000000001,-1.7506714,1
1651,9.084091,0.56163025,-1.8057404,1
1652,9.069733,0.5592345999999999,-1.8105316000000002,1
1653,9.068527,0.58317566,-1.784195,1
1654,9.064941000000001,0.55444336,-1.8021544999999999,1
1655,9.075714,0.5305023,-1.7997589,1
1656,9.0577545,0.56881714,-1.8141174,1
1657,9.076903999999999,0.5520477,-1.8093261999999999,1
1658,9.074508999999999,0.6107178000000001,-1.7351074,1
1659,9.102051,0.5281066999999999,-1.7722168000000003,1
1660,9.055359,0.5700073,-1.7794037,1
1661,9.024231,0.58317566,-1.7901764,1
1662,9.087677000000001,0.5640259,-1.7351074,1
1663,9.134369,0.56163025,-1.8105316000000002,1
1664,9.096069,0.5927581999999999,-1.8033447,1
1665,9.0733185,0.5197295999999999,-1.6932220000000002,1
1666,9.074508999999999,0.5484619000000001,-1.7195586999999999,1
1667,9.106842,0.54248047,-1.6920166,1
1668,9.081696,0.56521606,-1.6560974,1
1669,9.068527,0.54248047,-1.6166076999999999,1
1670,9.0577545,0.6059265,-1.6620941000000002,1
1671,9.094864,0.57121277,-1.6692657,1
1672,9.080505,0.59036255,-1.6896209999999998,1
1673,9.07811,0.56163025,-1.7051849,1
1674,9.118805,0.5484619000000001,-1.6560974,1
1675,9.121201,0.57240295,-1.6513214,1
1676,9.1128235,0.57240295,-1.6465302,1
1677,9.082901,0.56521606,-1.6525116000000002,1
1678,9.064941000000001,0.5676116999999999,-1.6489258000000002,1
1679,9.093674,0.5747985999999999,-1.6692657,1
1680,9.096069,0.5448761,-1.610611,1
1681,9.076903999999999,0.5664215,-1.6034393,1
1682,9.085281,0.5257263000000001,-1.6201934999999998,1
1683,9.108032000000001,0.54248047,-1.6201934999999998,1
1684,9.106842,0.53289795,-1.6644897,1
1685,9.088882,0.60113525,-1.6560974,1
1686,9.082901,0.5783844,-1.7363129000000002,1
1687,9.123596000000001,0.5640259,-1.8284912,1
1688,9.108032000000001,0.5556488,-1.7985535,1
1689,9.108032000000001,0.576004,-1.729126,1
1690,9.090073,0.5951538000000001,-1.7375029999999998,1
1691,9.058945,0.6071167,-1.7195586999999999,1
1692,9.081696,0.59994507,-1.7027893,1
1693,9.032608,0.5783844,-1.6680756,1
1694,9.122391,0.56044006,-1.7255401999999997,1
1695,9.105637,0.54966736,-1.7135619999999998,1
1696,9.062546000000001,0.5592345999999999,-1.6752625,1
1697,9.056564,0.57121277,-1.6573029,1
1698,9.157119999999999,0.58917236,-1.6776581000000002,1
1699,9.130783000000001,0.58677673,-1.7422943,1
1700,9.084091,0.6059265,-1.7267303,1
1701,9.054169,0.5472716999999999,-1.7123718,1
1702,9.103241,0.54367065,-1.6668854,1
1703,9.102051,0.5484619000000001,-1.6908264,1
1704,9.092467999999998,0.5747985999999999,-1.6632843000000002,1
1705,9.081696,0.5747985999999999,-1.6680756,1
1706,9.039795,0.5843811,-1.6896209999999998,1
1707,9.052963,0.5951538000000001,-1.7279358,1
1708,9.0793,0.57958984,-1.6776581000000002,1
1709,9.105637,0.5640259,-1.6489258000000002,1
1710,9.0972595,0.57240295,-1.6177979,1
1711,9.094864,0.57121277,-1.658493,1
1712,9.109222,0.58917236,-1.6417389,1
1713,9.090073,0.576004,-1.6249847,1
1714,9.115219,0.57240295,-1.6154022,1
1715,9.086487,0.55085754,-1.6154022,1
1716,9.069733,0.54367065,-1.6237793,1
1717,9.068527,0.5532531999999999,-1.6309662,1
1718,9.092467999999998,0.5747985999999999,-1.6872253000000001,1
1719,9.092467999999998,0.5676116999999999,-1.6776581000000002,1
1720,9.115219,0.5568390000000001,-1.6944122,1
1721,9.076903999999999,0.5460663,-1.6525116000000002,1
1722,9.086487,0.5843811,-1.6872253000000001,1
1723,9.103241,0.55444336,-1.697998,1
1724,9.102051,0.5520477,-1.6728668000000002,1
1725,9.085281,0.58078,-1.6620941000000002,1
1726,9.081696,0.5664215,-1.6728668000000002,1
1727,9.091277999999999,0.5472716999999999,-1.6297760000000001,1
1728,9.090073,0.5484619000000001,-1.6848296999999999,1
1729,9.100845,0.52212524,-1.610611,1
1730,9.075714,0.57121277,-1.6549072,1
1731,9.09845,0.5448761,-1.6429291000000001,1
1732,9.080505,0.5281066999999999,-1.6884308000000001,1
1733,9.041,0.5520477,-1.6357574,1
1734,9.088882,0.5281066999999999,-1.6537169999999999,1
1735,9.143951,0.57240295,-1.7614441000000003,1
1736,9.146347,0.57240295,-1.7482758000000003,1
1737,9.062546000000001,0.54008484,-1.6716613999999999,1
1738,9.081696,0.5233306999999999,-1.6381531,1
1739,9.085281,0.50297546,-1.6166076999999999,1
1740,9.075714,0.5269165,-1.6549072,1
1741,9.07811,0.5640259,-1.6632843000000002,1
1742,9.080505,0.5460663,-1.6620941000000002,1
1743,9.080505,0.55085754,-1.6429291000000001,1
1744,9.076903999999999,0.5747985999999999,-1.6596985,1
1745,9.117614999999999,0.5628357,-1.6285706,1
1746,9.091277999999999,0.6035309,-1.5771027,1
1747,9.123596000000001,0.56044006,-1.6058197,1
1748,9.133179,0.5819854999999999,-1.5974426000000002,1
1749,9.092467999999998,0.56881714,-1.614212,1
1750,9.096069,0.56521606,-1.6118164,1
1751,9.117614999999999,0.5771941999999999,-1.6166076999999999,1
1752,9.0793,0.57121277,-1.6058197,1
1753,9.096069,0.55085754,-1.6201934999999998,1
1754,9.072113,0.5628357,-1.610611,1
1755,9.094864,0.5736084,-1.6094208,1
1756,9.090073,0.5376892,-1.6549072,1
1757,9.106842,0.5472716999999999,-1.6776581000000002,1
1758,9.100845,0.5819854999999999,-1.6848296999999999,1
1759,9.090073,0.5556488,-1.6812439,1
1760,9.110428,0.5484619000000001,-1.6812439,1
1761,9.090073,0.5376892,-1.6968078999999998,1
1762,9.067337,0.5640259,-1.6860351999999998,1
1763,9.06015,0.5700073,-1.6896209999999998,1
1764,9.052963,0.5700073,-1.7087708,1
1765,9.105637,0.54367065,-1.6836395,1
1766,9.066132000000001,0.5305023,-1.7219391,1
1767,9.07811,0.5448761,-1.7470856,1
1768,9.066132000000001,0.536499,-1.7650452,1
1769,9.072113,0.541275,-1.6992035,1
1770,9.106842,0.54367065,-1.7183533,1
1771,9.103241,0.5376892,-1.7806091,1
1772,9.030228,0.59394836,-1.7746124,1
1773,9.072113,0.55085754,-1.7997589,1
1774,9.106842,0.5700073,-1.8009491000000002,1
1775,9.09845,0.536499,-1.8237,1
1776,9.082901,0.56163025,-1.7806091,1
1777,9.09845,0.536499,-1.784195,1
1778,9.069733,0.5472716999999999,-1.753067,1
1779,9.064941000000001,0.5556488,-1.8069457999999998,1
1780,9.048172000000001,0.5664215,-1.7889862,1
1781,9.054169,0.57240295,-1.8057404,1
1782,9.063736,0.57958984,-1.832077,1
1783,9.031417999999999,0.57121277,-1.8608093,1
1784,9.055359,0.5843811,-1.8679961999999999,1
1785,9.0793,0.5771941999999999,-1.8356628000000001,1
1786,9.062546000000001,0.56881714,-1.8428497,1
1787,9.100845,0.5736084,-1.8392639,1
1788,9.050568,0.56044006,-1.8165131,1
1789,9.069733,0.536499,-1.8105316000000002,1
1790,9.076903999999999,0.53889465,-1.8129272,1
1791,9.076903999999999,0.541275,-1.768631,1
1792,9.088882,0.54367065,-1.7698363999999998,1
1793,9.069733,0.5472716999999999,-1.7207488999999998,1
1794,9.105637,0.56881714,-1.7003936999999998,1
1795,9.054169,0.58677673,-1.7279358,1
1796,9.109222,0.57240295,-1.6860351999999998,1
1797,9.072113,0.53889465,-1.7482758000000003,1
1798,9.081696,0.5281066999999999,-1.7063903999999999,1
1799,9.099655,0.5783844,-1.6824341,1
1800,9.049377,0.53889465,-1.6932220000000002,1
1801,9.062546000000001,0.541275,-1.6513214,1
1802,9.064941000000001,0.55085754,-1.6920166,1
1803,9.110428,0.5676116999999999,-1.7135619999999998,1
1804,9.06134,0.5664215,-1.7195586999999999,1
1805,9.096069,0.5664215,-1.6680756,1
1806,9.142746,0.55804443,-1.6956023999999998,1
1807,9.048172000000001,0.53170776,-1.6656799,1
1808,9.075714,0.5556488,-1.6237793,1
1809,9.12001,0.54367065,-1.6620941000000002,1
1810,9.106842,0.5448761,-1.7650452,1
1811,9.096069,0.5855713,-1.7327118000000001,1
1812,9.0972595,0.54248047,-1.6477203,1
1813,9.086487,0.541275,-1.6537169999999999,1
1814,9.049377,0.5269165,-1.6273803999999998,1
1815,9.036209,0.54966736,-1.6381531,1
1816,9.085281,0.5879669,-1.6537169999999999,1
1817,9.063736,0.56521606,-1.7015991000000001,1
1818,9.094864,0.56163025,-1.7231445,1
1819,9.116408999999999,0.5472716999999999,-1.7482758000000003,1
1820,9.093674,0.5879669,-1.7219391,1
1821,9.0793,0.5843811,-1.6908264,1
1822,9.088882,0.55444336,-1.6884308000000001,1
1823,9.084091,0.5484619000000001,-1.7339171999999998,1
1824,9.0733185,0.5556488,-1.7231445,1
1825,9.081696,0.56521606,-1.7195586999999999,1
1826,9.076903999999999,0.5771941999999999,-1.6716613999999999,1
1827,9.092467999999998,0.5484619000000001,-1.6920166,1
1828,9.062546000000001,0.5460663,-1.650116,1
1829,9.06015,0.576004,-1.6752625,1
1830,9.088882,0.56881714,-1.7075806,1
1831,9.088882,0.5640259,-1.7027893,1
1832,9.099655,0.5532531999999999,-1.658493,1
1833,9.087677000000001,0.5556488,-1.697998,1
1834,9.086487,0.5532531999999999,-1.7267303,1
1835,9.109222,0.576004,-1.7087708,1
1836,9.0972595,0.5484619000000001,-1.7099761999999998,1
1837,9.086487,0.5700073,-1.6932220000000002,1
1838,9.0793,0.54367065,-1.7135619999999998,1
1839,9.084091,0.56521606,-1.6752625,1
1840,9.110428,0.5676116999999999,-1.6680756,1
1841,9.076903999999999,0.56044006,-1.697998,1
1842,9.055359,0.5520477,-1.6776581000000002,1
1843,9.070922999999999,0.56163025,-1.6429291000000001,1
1844,9.133179,0.5472716999999999,-1.6788483,1
1845,9.106842,0.5472716999999999,-1.7099761999999998,1
1846,9.109222,0.55804443,-1.658493,1
1847,9.099655,0.5556488,-1.6560974,1
1848,9.114014,0.5676116999999999,-1.7255401999999997,1
1849,9.1128235,0.57958984,-1.74469,1
1850,9.064941000000001,0.5472716999999999,-1.6620941000000002,1
1851,9.072113,0.5233306999999999,-1.6477203,1
1852,9.100845,0.53889465,-1.6405487,1
1853,9.094864,0.5472716999999999,-1.6417389,1
1854,9.074508999999999,0.5879669,-1.6788483,1
1855,9.076903999999999,0.56881714,-1.6668854,1
1856,9.074508999999999,0.576004,-1.7003936999999998,1
1857,9.0972595,0.57121277,-1.6632843000000002,1
1858,9.084091,0.5592345999999999,-1.7171631,1
1859,9.0733185,0.57958984,-1.6465302,1
1860,9.086487,0.5520477,-1.6620941000000002,1
1861,9.104446000000001,0.5676116999999999,-1.6560974,1
1862,9.067337,0.59155273,-1.6764526000000002,1
1863,9.085281,0.57958984,-1.658493,1
1864,9.1128235,0.5460663,-1.6417389,1
1865,9.094864,0.5472716999999999,-1.6549072,1
1866,9.0972595,0.5281066999999999,-1.6776581000000002,1
1867,9.0733185,0.5640259,-1.6393433000000002,1
1868,9.099655,0.5460663,-1.6728668000000002,1
1869,9.111618,0.56044006,-1.6668854,1
1870,9.108032000000001,0.55444336,-1.6573029,1
1871,9.106842,0.53289795,-1.7075806,1
1872,9.087677000000001,0.5676116999999999,-1.697998,1
1873,9.137955,0.57958984,-1.6908264,1
1874,9.091277999999999,0.5855713,-1.6764526000000002,1
1875,9.080505,0.5855713,-1.6896209999999998,1
1876,9.087677000000001,0.6059265,-1.6800537,1
1877,9.070922999999999,0.5879669,-1.6812439,1
1878,9.096069,0.56163025,-1.6549072,1
1879,9.084091,0.576004,-1.6872253000000001,1
1880,9.09845,0.55804443,-1.6644897,1
1881,9.0793,0.5664215,-1.6393433000000002,1
1882,9.07811,0.5664215,-1.6393433000000002,1
1883,9.082901,0.5592345999999999,-1.6249847,1
1884,9.14035,0.5819854999999999,-1.6477203,1
1885,9.080505,0.5736084,-1.6992035,1
1886,9.039795,0.58677673,-1.6680756,1
1887,9.105637,0.5819854999999999,-1.7039948,1
1888,9.137955,0.58317566,-1.7889862,1
1889,9.121201,0.5664215,-1.7339171999999998,1
1890,9.054169,0.5927581999999999,-1.6836395,1
1891,9.062546000000001,0.58078,-1.6716613999999999,1
1892,9.067337,0.5640259,-1.6932220000000002,1
1893,9.038605,0.59155273,-1.6968078999999998,1
1894,9.050568,0.57240295,-1.7183533,1
1895,9.069733,0.55804443,-1.7877808000000002,1
1896,9.066132000000001,0.5843811,-1.7746124,1
1897,9.076903999999999,0.5664215,-1.7626495,1
1898,9.085281,0.54966736,-1.74469,1
1899,9.070922999999999,0.54966736,-1.7183533,1
1900,9.105637,0.56044006,-1.7387085,1
1901,9.081696,0.5819854999999999,-1.7985535,1
1902,9.074508999999999,0.5951538000000001,-1.784195,1
1903,9.068527,0.56881714,-1.7662354,1
1904,9.092467999999998,0.5771941999999999,-1.7901764,1
1905,9.063736,0.5568390000000001,-1.7566681,1
1906,9.049377,0.5747985999999999,-1.784195,1
1907,9.072113,0.5628357,-1.7698363999999998,1
1908,9.054169,0.5640259,-1.7806091,1
1909,9.068527,0.58078,-1.8404541,1
1910,9.07811,0.55444336,-1.8201141,1
1911,9.070922999999999,0.5747985999999999,-1.8237,1
1912,9.0577545,0.58078,-1.8248901000000002,1
1913,9.076903999999999,0.5783844,-1.8440552,1
1914,9.055359,0.596344,-1.8368683000000001,1
1915,9.049377,0.59155273,-1.8763733,1
1916,9.039795,0.5855713,-1.8667908,1
1917,9.06015,0.5700073,-1.8572235000000001,1
1918,9.042191,0.5855713,-1.8691863999999998,1
1919,9.058945,0.58317566,-1.8536224,1
1920,9.106842,0.5520477,-1.8560181,1
1921,9.0972595,0.56881714,-1.8907318,1
1922,9.025436000000001,0.5700073,-1.8536224,1
1923,9.033813,0.5819854999999999,-1.808136,1
1924,9.121201,0.5879669,-1.8224945,1
1925,9.0793,0.5879669,-1.9051056,1
1926,9.041,0.56521606,-1.8572235000000001,1
1927,9.048172000000001,0.55085754,-1.7758179,1
1928,9.072113,0.5640259,-1.8213043000000002,1
1929,9.0733185,0.57958984,-1.7566681,1
1930,9.066132000000001,0.58677673,-1.7195586999999999,1
1931,9.080505,0.59754944,-1.6956023999999998,1
1932,9.093674,0.59754944,-1.7039948,1
1933,9.086487,0.61190796,-1.729126,1
1934,9.063736,0.5736084,-1.7650452,1
1935,9.102051,0.58078,-1.7279358,1
1936,9.094864,0.536499,-1.7027893,1
1937,9.099655,0.5771941999999999,-1.7015991000000001,1
1938,9.085281,0.6238861,-1.7159576,1
1939,9.067337,0.5819854999999999,-1.7075806,1
1940,9.115219,0.5819854999999999,-1.6824341,1
1941,9.067337,0.5640259,-1.7195586999999999,1
1942,9.0733185,0.5281066999999999,-1.6956023999999998,1
1943,9.104446000000001,0.5664215,-1.6764526000000002,1
1944,9.081696,0.54248047,-1.6860351999999998,1
1945,9.0577545,0.57240295,-1.7195586999999999,1
1946,9.081696,0.5700073,-1.7267303,1
1947,9.105637,0.55085754,-1.7195586999999999,1
1948,9.105637,0.6071167,-1.753067,1
1949,9.092467999999998,0.56881714,-1.7650452,1
1950,9.103241,0.54367065,-1.7387085,1
1951,9.076903999999999,0.5185394,-1.7363129000000002,1
1952,9.069733,0.541275,-1.7075806,1
1953,9.104446000000001,0.5568390000000001,-1.6680756,1
1954,9.142746,0.5592345999999999,-1.7267303,1
1955,9.091277999999999,0.5568390000000001,-1.6956023999999998,1
1956,9.067337,0.55804443,-1.6668854,1
1957,9.06015,0.5927581999999999,-1.6656799,1
1958,9.086487,0.5736084,-1.7015991000000001,1
1959,9.055359,0.5843811,-1.7267303,1
1960,9.091277999999999,0.576004,-1.7051849,1
1961,9.155914,0.59036255,-1.7602539000000001,1
1962,9.122391,0.6131134,-1.8536224,1
1963,9.076903999999999,0.6286621,-1.7794037,1
1964,9.056564,0.596344,-1.7422943,1
1965,9.096069,0.596344,-1.7231445,1
1966,9.06015,0.5700073,-1.697998,1
1967,9.051772999999999,0.59394836,-1.7123718,1
1968,9.0577545,0.61190796,-1.7063903999999999,1
1969,9.051772999999999,0.63345337,-1.7099761999999998,1
1970,9.0577545,0.5987395999999999,-1.7710266,1
1971,9.080505,0.58917236,-1.7111664,1
1972,9.054169,0.5951538000000001,-1.6884308000000001,1
1973,9.0793,0.58917236,-1.7051849,1
1974,9.106842,0.58078,-1.729126,1
1975,9.087677000000001,0.5927581999999999,-1.7219391,1
1976,9.054169,0.6071167,-1.7458801,1
1977,9.084091,0.5951538000000001,-1.7434998,1
1978,9.090073,0.5556488,-1.6848296999999999,1
1979,9.043396000000001,0.5700073,-1.7111664,1
1980,9.055359,0.5879669,-1.7039948,1
1981,9.081696,0.58677673,-1.6908264,1
1982,9.091277999999999,0.5747985999999999,-1.7147675,1
1983,9.067337,0.5352935999999999,-1.7207488999999998,1
1984,9.104446000000001,0.59155273,-1.7099761999999998,1
1985,9.056564,0.56163025,-1.7255401999999997,1
1986,9.080505,0.57121277,-1.7339171999999998,1
1987,9.104446000000001,0.54008484,-1.7243346999999998,1
1988,9.076903999999999,0.57958984,-1.7123718,1
1989,9.07811,0.56044006,-1.6920166,1
1990,9.072113,0.576004,-1.7063903999999999,1
1991,9.080505,0.57121277,-1.7039948,1
1992,9.102051,0.5664215,-1.7111664,1
1993,9.099655,0.5783844,-1.7315216,1
1994,9.064941000000001,0.58317566,-1.6848296999999999,1
1995,9.103241,0.57240295,-1.6812439,1
1996,9.128387,0.56044006,-1.7279358,1
1997,9.092467999999998,0.59994507,-1.6884308000000001,1
1998,9.037399,0.5532531999999999,-1.7195586999999999,1
1999,9.084091,0.58078,-1.697998,1
2000,9.118805,0.576004,-1.808136,1
2001,9.091277999999999,0.596344,-1.7961731,1
2002,9.037399,0.5628357,-1.6848296999999999,1
2003,9.096069,0.5556488,-1.6764526000000002,1
2004,9.088882,0.58078,-1.7039948,1
2005,9.0793,0.5783844,-1.6920166,1
2006,9.075714,0.58917236,-1.729126,1
2007,9.069733,0.59394836,-1.6668854,1
2008,9.087677000000001,0.5640259,-1.74469,1
2009,9.082901,0.58317566,-1.7578582999999999,1
2010,9.067337,0.60113525,-1.7195586999999999,1
2011,9.09845,0.57958984,-1.7219391,1
2012,9.121201,0.5747985999999999,-1.7195586999999999,1
2013,9.103241,0.61550903,-1.7183533,1
2014,9.084091,0.5676116999999999,-1.6596985,1
2015,9.0733185,0.5771941999999999,-1.634552,1
2016,9.080505,0.58317566,-1.6489258000000002,1
2017,9.09845,0.5783844,-1.6010437,1
2018,9.075714,0.5568390000000001,-1.6405487,1
2019,9.090073,0.57240295,-1.6321564,1
2020,9.07811,0.5819854999999999,-1.658493,1
2021,9.118805,0.5771941999999999,-1.6632843000000002,1
2022,9.121201,0.58677673,-1.6992035,1
2023,9.080505,0.57240295,-1.6776581000000002,1
2024,9.085281,0.5700073,-1.6788483,1
2025,9.086487,0.5592345999999999,-1.6920166,1
2026,9.058945,0.5879669,-1.6812439,1
2027,9.054169,0.5568390000000001,-1.7183533,1
2028,9.055359,0.6035309,-1.7219391,1
2029,9.050568,0.5855713,-1.7027893,1
2030,9.070922999999999,0.5700073,-1.7111664,1
2031,9.06015,0.5448761,-1.7327118000000001,1
2032,9.07811,0.5879669,-1.7662354,1
2033,9.063736,0.5843811,-1.7135619999999998,1
2034,9.068527,0.5747985999999999,-1.7183533,1
2035,9.093674,0.5532531999999999,-1.7219391,1
2036,9.084091,0.57121277,-1.7566681,1
2037,9.031417999999999,0.57958984,-1.7770080000000001,1
2038,9.046982,0.5628357,-1.7674408,1
2039,9.115219,0.6071167,-1.8452453999999998,1
2040,9.108032000000001,0.6178894,-1.8943328999999998,1
2041,9.093674,0.5640259,-1.8763733,1
2042,9.046982,0.48860168,-1.7722168000000003,1
2043,9.1128235,0.5257263000000001,-1.7003936999999998,1
2044,9.062546000000001,0.5628357,-1.6860351999999998,1
2045,9.062546000000001,0.6382445999999999,-1.6872253000000001,1
2046,9.049377,0.6143036000000001,-1.7243346999999998,1
2047,9.110428,0.6178894,-1.7758179,1
2048,9.092467999999998,0.5771941999999999,-1.7806091,1
2049,9.080505,0.5628357,-1.7566681,1
2050,9.076903999999999,0.54248047,-1.7746124,1
2051,9.084091,0.5484619000000001,-1.8009491000000002,1
2052,9.076903999999999,0.536499,-1.7746124,1
2053,9.055359,0.576004,-1.8201141,1
2054,9.0733185,0.56881714,-1.7830047999999998,1
2055,9.106842,0.54367065,-1.7434998,1
2056,9.108032000000001,0.5783844,-1.7422943,1
2057,9.1128235,0.57121277,-1.7554626,1
2058,9.0733185,0.59994507,-1.7111664,1
2059,9.06134,0.6095123,-1.7051849,1
2060,9.0577545,0.59394836,-1.7075806,1
2061,9.054169,0.5628357,-1.6848296999999999,1
2062,9.070922999999999,0.56521606,-1.6776581000000002,1
2063,9.064941000000001,0.55804443,-1.7003936999999998,1
2064,9.091277999999999,0.56044006,-1.6381531,1
2065,9.12001,0.58317566,-1.6177979,1
2066,9.118805,0.576004,-1.6537169999999999,1
2067,9.088882,0.5951538000000001,-1.6405487,1
2068,9.086487,0.6107178000000001,-1.6237793,1
2069,9.066132000000001,0.5628357,-1.6872253000000001,1
2070,9.102051,0.60832214,-1.7063903999999999,1
2071,9.041,0.59036255,-1.7853851000000003,1
2072,9.038605,0.5676116999999999,-1.7602539000000001,1
2073,9.160706,0.5532531999999999,-1.8069457999999998,1
2074,9.110428,0.536499,-1.9122772000000001,1
2075,9.087677000000001,0.5628357,-1.7806091,1
2076,9.070922999999999,0.5520477,-1.7398987000000001,1
2077,9.09845,0.56881714,-1.6908264,1
2078,9.09845,0.5951538000000001,-1.6872253000000001,1
2079,9.0972595,0.60472107,-1.7099761999999998,1
2080,9.048172000000001,0.6059265,-1.6896209999999998,1
2081,9.041,0.60832214,-1.6944122,1
2082,9.062546000000001,0.6131134,-1.697998,1
2083,9.085281,0.61909485,-1.6956023999999998,1
2084,9.076903999999999,0.5927581999999999,-1.6656799,1
2085,9.104446000000001,0.59036255,-1.6668854,1
2086,9.100845,0.56044006,-1.6656799,1
2087,9.091277999999999,0.59754944,-1.6788483,1
2088,9.090073,0.58317566,-1.7087708,1
2089,9.087677000000001,0.5664215,-1.7039948,1
2090,9.075714,0.5676116999999999,-1.7003936999999998,1
2091,9.06134,0.5676116999999999,-1.7111664,1
2092,9.06134,0.58917236,-1.6764526000000002,1
2093,9.088882,0.5951538000000001,-1.6453247,1
2094,9.108032000000001,0.58078,-1.6920166,1
2095,9.086487,0.5927581999999999,-1.6884308000000001,1
2096,9.111618,0.5592345999999999,-1.6944122,1
2097,9.086487,0.5736084,-1.6393433000000002,1
2098,9.114014,0.57240295,-1.6680756,1
2099,9.087677000000001,0.6023407,-1.6453247,1
2100,9.099655,0.5532531999999999,-1.6728668000000002,1
2101,9.114014,0.55804443,-1.6620941000000002,1
2102,9.07811,0.596344,-1.6656799,1
2103,9.086487,0.5628357,-1.6297760000000001,1
2104,9.082901,0.5819854999999999,-1.6525116000000002,1
2105,9.12001,0.5879669,-1.7123718,1
2106,9.067337,0.5736084,-1.6800537,1
2107,9.067337,0.5484619000000001,-1.6716613999999999,1
2108,9.129578,0.56521606,-1.6920166,1
2109,9.111618,0.6071167,-1.7267303,1
2110,9.1128235,0.60472107,-1.7674408,1
2111,9.075714,0.55444336,-1.6692657,1
2112,9.09845,0.5664215,-1.6441345,1
2113,9.117614999999999,0.55804443,-1.6489258000000002,1
2114,9.081696,0.59994507,-1.6441345,1
2115,9.076903999999999,0.6286621,-1.6656799,1
2116,9.062546000000001,0.58078,-1.6728668000000002,1
2117,9.104446000000001,0.5951538000000001,-1.6968078999999998,1
2118,9.105637,0.59036255,-1.6560974,1
2119,9.080505,0.5987395999999999,-1.6596985,1
2120,9.108032000000001,0.5771941999999999,-1.6321564,1
2121,9.103241,0.5843811,-1.6644897,1
2122,9.094864,0.59155273,-1.6908264,1
2123,9.0793,0.5736084,-1.6620941000000002,1
2124,9.09845,0.576004,-1.6632843000000002,1
2125,9.090073,0.54966736,-1.6680756,1
2126,9.103241,0.5664215,-1.6513214,1
2127,9.104446000000001,0.5556488,-1.6453247,1
2128,9.100845,0.60472107,-1.6405487,1
2129,9.096069,0.56163025,-1.6812439,1
2130,9.075714,0.60832214,-1.6824341,1
2131,9.1128235,0.5783844,-1.6728668000000002,1
2132,9.075714,0.58677673,-1.6537169999999999,1
2133,9.105637,0.54966736,-1.6764526000000002,1
2134,9.117614999999999,0.5843811,-1.6752625,1
2135,9.062546000000001,0.5736084,-1.697998,1
2136,9.104446000000001,0.56881714,-1.7051849,1
2137,9.0577545,0.5700073,-1.6656799,1
2138,9.106842,0.5879669,-1.6537169999999999,1
2139,9.118805,0.5341034,-1.6704712,1
2140,9.143951,0.58078,-1.7231445,1
2141,9.044586,0.5747985999999999,-1.6213837,1
2142,9.070922999999999,0.5640259,-1.6369476,1
2143,9.149933,0.59155273,-1.6932220000000002,1
2144,9.124786,0.60832214,-1.7470856,1
2145,9.081696,0.57121277,-1.6692657,1
2146,9.072113,0.57958984,-1.6417389,1
2147,9.096069,0.57958984,-1.6309662,1
2148,9.116408999999999,0.59754944,-1.6381531,1
2149,9.0733185,0.5927581999999999,-1.6620941000000002,1
2150,9.06134,0.60113525,-1.6405487,1
2151,9.076903999999999,0.59994507,-1.6668854,1
2152,9.093674,0.59754944,-1.6692657,1
2153,9.080505,0.59994507,-1.6513214,1
2154,9.104446000000001,0.5700073,-1.6453247,1
2155,9.121201,0.58078,-1.6549072,1
2156,9.090073,0.5819854999999999,-1.6860351999999998,1
2157,9.092467999999998,0.5771941999999999,-1.658493,1
2158,9.062546000000001,0.58917236,-1.6632843000000002,1
2159,9.0733185,0.5783844,-1.6956023999999998,1
2160,9.096069,0.56881714,-1.6680756,1
2161,9.06015,0.55444336,-1.7123718,1
2162,9.068527,0.5747985999999999,-1.6992035,1
2163,9.085281,0.60472107,-1.7518768,1
2164,9.085281,0.596344,-1.7087708,1
2165,9.0793,0.5568390000000001,-1.7255401999999997,1
2166,9.088882,0.58677673,-1.7458801,1
2167,9.080505,0.5736084,-1.7398987000000001,1
2168,9.066132000000001,0.6131134,-1.7590485,1
2169,9.049377,0.596344,-1.7710266,1
2170,9.074508999999999,0.5987395999999999,-1.7806091,1
2171,9.0793,0.59394836,-1.7817993000000003,1
2172,9.062546000000001,0.59754944,-1.7662354,1
2173,9.099655,0.5879669,-1.7482758000000003,1
2174,9.074508999999999,0.57121277,-1.7638397000000001,1
2175,9.051772999999999,0.5676116999999999,-1.768631,1
2176,9.068527,0.576004,-1.8009491000000002,1
2177,9.072113,0.58317566,-1.8500366000000001,1
2178,9.027832,0.61550903,-1.8021544999999999,1
2179,9.049377,0.5747985999999999,-1.8057404,1
2180,9.115219,0.59394836,-1.8703918000000002,1
2181,9.054169,0.5927581999999999,-1.8919373,1
2182,9.046982,0.5676116999999999,-1.8284912,1
2183,9.063736,0.56044006,-1.8416595000000002,1
2184,9.081696,0.56521606,-1.8536224,1
2185,9.014664,0.59036255,-1.8656006,1
2186,9.005081,0.5520477,-1.847641,1
2187,9.056564,0.5951538000000001,-1.8955231,1
2188,9.076903999999999,0.59994507,-1.9290466,1
2189,9.082901,0.58317566,-1.9015045,1
2190,9.07811,0.57958984,-1.8368683000000001,1
2191,9.09845,0.5664215,-1.8284912,1
2192,9.070922999999999,0.5568390000000001,-1.8272858,1
2193,9.06134,0.6250763,-1.8404541,1
2194,9.087677000000001,0.60472107,-1.792572,1
2195,9.066132000000001,0.5771941999999999,-1.8224945,1
2196,9.074508999999999,0.5448761,-1.7817993000000003,1
2197,9.06134,0.57121277,-1.7339171999999998,1
2198,9.068527,0.6143036000000001,-1.7387085,1
2199,9.044586,0.60113525,-1.7207488999999998,1
2200,9.038605,0.5592345999999999,-1.7554626,1
2201,9.091277999999999,0.5951538000000001,-1.7518768,1
2202,9.09845,0.6023407,-1.7590485,1
2203,9.084091,0.59754944,-1.768631,1
2204,9.085281,0.59394836,-1.7542725,1
2205,9.088882,0.57958984,-1.7650452,1
2206,9.086487,0.5747985999999999,-1.7758179,1
2207,9.072113,0.596344,-1.7422943,1
2208,9.082901,0.59155273,-1.74469,1
2209,9.069733,0.57958984,-1.7662354,1
2210,9.12001,0.5843811,-1.7434998,1
2211,9.033813,0.62268066,-1.6992035,1
2212,9.066132000000001,0.59155273,-1.7003936999999998,1
2213,9.122391,0.59036255,-1.7494811999999997,1
2214,9.125992,0.5879669,-1.8224945,1
2215,9.07811,0.55444336,-1.7865906000000003,1
2216,9.084091,0.5472716999999999,-1.697998,1
2217,9.076903999999999,0.56521606,-1.7123718,1
2218,9.0733185,0.5843811,-1.6908264,1
2219,9.045776,0.5568390000000001,-1.6608886999999999,1
2220,9.056564,0.6166991999999999,-1.7087708,1
2221,9.069733,0.59155273,-1.74469,1
2222,9.06015,0.6071167,-1.7554626,1
2223,9.056564,0.61550903,-1.7159576,1
2224,9.091277999999999,0.59994507,-1.7087708,1
2225,9.096069,0.5783844,-1.6920166,1
2226,9.1128235,0.6071167,-1.7195586999999999,1
2227,9.068527,0.61909485,-1.7099761999999998,1
2228,9.056564,0.60472107,-1.7231445,1
2229,9.091277999999999,0.6035309,-1.7135619999999998,1
2230,9.081696,0.5736084,-1.6788483,1
2231,9.076903999999999,0.5879669,-1.6884308000000001,1
2232,9.076903999999999,0.59036255,-1.6644897,1
2233,9.109222,0.6095123,-1.6537169999999999,1
2234,9.074508999999999,0.59754944,-1.6549072,1
2235,9.104446000000001,0.576004,-1.6836395,1
2236,9.075714,0.5736084,-1.7171631,1
2237,9.091277999999999,0.5640259,-1.7039948,1
2238,9.12001,0.576004,-1.7051849,1
2239,9.07811,0.57240295,-1.7075806,1
2240,9.099655,0.5568390000000001,-1.6824341,1
2241,9.094864,0.58078,-1.7039948,1
2242,9.072113,0.55085754,-1.7207488999999998,1
2243,9.064941000000001,0.58317566,-1.6489258000000002,1
2244,9.086487,0.5987395999999999,-1.6596985,1
2245,9.110428,0.56881714,-1.6776581000000002,1
2246,9.075714,0.5592345999999999,-1.6944122,1
2247,9.058945,0.59036255,-1.6836395,1
2248,9.096069,0.5843811,-1.6573029,1
2249,9.170288000000001,0.6382445999999999,-1.7638397000000001,1
2250,9.117614999999999,0.5771941999999999,-1.7506714,1
2251,9.070922999999999,0.5855713,-1.6884308000000001,1
2252,9.064941000000001,0.55804443,-1.6824341,1
2253,9.093674,0.5736084,-1.6656799,1
2254,9.050568,0.5879669,-1.674057,1
2255,9.062546000000001,0.5987395999999999,-1.6620941000000002,1
2256,9.0577545,0.59754944,-1.6860351999999998,1
2257,9.074508999999999,0.58917236,-1.6812439,1
2258,9.074508999999999,0.60832214,-1.6908264,1
2259,9.058945,0.60472107,-1.7183533,1
2260,9.090073,0.59754944,-1.6812439,1
2261,9.117614999999999,0.5700073,-1.7051849,1
2262,9.06134,0.6107178000000001,-1.6860351999999998,1
2263,9.085281,0.58317566,-1.6860351999999998,1
2264,9.081696,0.5879669,-1.6956023999999998,1
2265,9.07811,0.5568390000000001,-1.6549072,1
2266,9.108032000000001,0.5352935999999999,-1.6932220000000002,1
2267,9.056564,0.55804443,-1.6453247,1
2268,9.080505,0.5700073,-1.6668854,1
2269,9.091277999999999,0.5783844,-1.6860351999999998,1
2270,9.068527,0.60113525,-1.7039948,1
2271,9.075714,0.5879669,-1.6812439,1
2272,9.090073,0.596344,-1.6944122,1
2273,9.116408999999999,0.5520477,-1.6896209999999998,1
2274,9.100845,0.59394836,-1.674057,1
2275,9.0972595,0.58317566,-1.6764526000000002,1
2276,9.054169,0.6143036000000001,-1.6800537,1
2277,9.076903999999999,0.5843811,-1.6872253000000001,1
2278,9.100845,0.56044006,-1.7099761999999998,1
2279,9.116408999999999,0.5640259,-1.7027893,1
2280,9.092467999999998,0.56521606,-1.6860351999999998,1
2281,9.044586,0.61190796,-1.6369476,1
2282,9.122391,0.596344,-1.6920166,1
2283,9.131973,0.576004,-1.6920166,1
2284,9.0577545,0.596344,-1.6249847,1
2285,9.105637,0.56163025,-1.6956023999999998,1
2286,9.142746,0.596344,-1.7758179,1
2287,9.099655,0.61190796,-1.7782135,1
2288,9.043396000000001,0.58078,-1.6872253000000001,1
2289,9.070922999999999,0.53289795,-1.6620941000000002,1
2290,9.075714,0.5484619000000001,-1.6704712,1
2291,9.076903999999999,0.58917236,-1.6824341,1
2292,9.072113,0.5927581999999999,-1.7159576,1
2293,9.09845,0.58917236,-1.729126,1
2294,9.0793,0.6178894,-1.7123718,1
2295,9.072113,0.61909485,-1.7015991000000001,1
2296,9.076903999999999,0.5855713,-1.7111664,1
2297,9.080505,0.60832214,-1.6608886999999999,1
2298,9.0793,0.5927581999999999,-1.7039948,1
2299,9.067337,0.5676116999999999,-1.7279358,1
2300,9.06134,0.5664215,-1.7554626,1
2301,9.07811,0.576004,-1.7315216,1
2302,9.087677000000001,0.5700073,-1.7351074,1
2303,9.096069,0.5448761,-1.7650452,1
2304,9.058945,0.5484619000000001,-1.7734221999999997,1
2305,9.045776,0.576004,-1.768631,1
2306,9.090073,0.6178894,-1.7458801,1
2307,9.075714,0.59994507,-1.7602539000000001,1
2308,9.082901,0.6059265,-1.7794037,1
2309,9.068527,0.58078,-1.808136,1
2310,9.063736,0.596344,-1.8117218000000002,1
2311,9.064941000000001,0.5951538000000001,-1.7877808000000002,1
2312,9.056564,0.5676116999999999,-1.8296814,1
2313,9.0793,0.60113525,-1.7961731,1
2314,9.042191,0.59155273,-1.7901764,1
2315,9.06134,0.57958984,-1.8153229,1
2316,9.013458,0.5879669,-1.7806091,1
2317,9.029022,0.6035309,-1.8141174,1
2318,9.043396000000001,0.5640259,-1.832077,1
2319,9.116408999999999,0.5951538000000001,-1.8488311999999998,1
2320,9.0793,0.5843811,-1.8189087,1
2321,9.027832,0.58317566,-1.8488311999999998,1
2322,9.086487,0.58677673,-1.8153229,1
2323,9.102051,0.5951538000000001,-1.8955231,1
2324,9.092467999999998,0.59754944,-1.887146,1
2325,9.021835000000001,0.58317566,-1.8560181,1
2326,9.070922999999999,0.58078,-1.832077,1
2327,9.064941000000001,0.5747985999999999,-1.8524323,1
2328,9.0182495,0.60113525,-1.7877808000000002,1
2329,9.021835000000001,0.60113525,-1.8057404,1
2330,9.056564,0.6035309,-1.8356628000000001,1
2331,9.0793,0.57121277,-1.8344726999999998,1
2332,9.06015,0.5736084,-1.8105316000000002,1
2333,9.075714,0.5676116999999999,-1.7961731,1
2334,9.06134,0.56044006,-1.7243346999999998,1
2335,9.092467999999998,0.5700073,-1.7422943,1
2336,9.092467999999998,0.6071167,-1.7817993000000003,1
2337,9.032608,0.58677673,-1.7339171999999998,1
2338,9.085281,0.596344,-1.7506714,1
2339,9.058945,0.58677673,-1.7411041,1
2340,9.074508999999999,0.5736084,-1.7470856,1
2341,9.067337,0.541275,-1.7279358,1
2342,9.06015,0.6071167,-1.7171631,1
2343,9.062546000000001,0.5987395999999999,-1.7470856,1
2344,9.066132000000001,0.59155273,-1.7578582999999999,1
2345,9.087677000000001,0.5819854999999999,-1.7255401999999997,1
2346,9.069733,0.6035309,-1.7638397000000001,1
2347,9.082901,0.58917236,-1.74469,1
2348,9.069733,0.5843811,-1.7494811999999997,1
2349,9.054169,0.57958984,-1.7590485,1
2350,9.066132000000001,0.5927581999999999,-1.7087708,1
2351,9.075714,0.59994507,-1.7351074,1
2352,9.07811,0.576004,-1.7063903999999999,1
2353,9.091277999999999,0.5843811,-1.7303313999999999,1
2354,9.045776,0.6143036000000001,-1.6668854,1
2355,9.088882,0.58677673,-1.7003936999999998,1
2356,9.084091,0.57240295,-1.6728668000000002,1
2357,9.043396000000001,0.596344,-1.6644897,1
2358,9.121201,0.5951538000000001,-1.6812439,1
2359,9.148727000000001,0.5987395999999999,-1.7830047999999998,1
2360,9.104446000000001,0.5843811,-1.8033447,1
2361,9.055359,0.59155273,-1.6884308000000001,1
2362,9.0733185,0.5855713,-1.6549072,1
2363,9.0793,0.5783844,-1.6656799,1
2364,9.06015,0.6059265,-1.6908264,1
2365,9.067337,0.61190796,-1.6968078999999998,1
2366,9.091277999999999,0.6214905,-1.6632843000000002,1
2367,9.0793,0.6095123,-1.7195586999999999,1
2368,9.07811,0.6214905,-1.7147675,1
2369,9.106842,0.59394836,-1.697998,1
2370,9.082901,0.5951538000000001,-1.6776581000000002,1
2371,9.094864,0.59394836,-1.6644897,1
2372,9.088882,0.6071167,-1.7027893,1
2373,9.067337,0.5879669,-1.6908264,1
2374,9.116408999999999,0.5879669,-1.6944122,1
2375,9.103241,0.55804443,-1.6716613999999999,1
2376,9.109222,0.57240295,-1.6860351999999998,1
2377,9.094864,0.5664215,-1.7015991000000001,1
2378,9.0733185,0.596344,-1.6764526000000002,1
2379,9.076903999999999,0.5556488,-1.6668854,1
2380,9.075714,0.6035309,-1.6992035,1
2381,9.09845,0.5771941999999999,-1.6728668000000002,1
2382,9.0972595,0.5783844,-1.7267303,1
2383,9.082901,0.58078,-1.6944122,1
2384,9.0793,0.5520477,-1.6920166,1
2385,9.075714,0.576004,-1.6872253000000001,1
2386,9.086487,0.58917236,-1.6800537,1
2387,9.087677000000001,0.58078,-1.7063903999999999,1
2388,9.084091,0.5700073,-1.6956023999999998,1
2389,9.076903999999999,0.5700073,-1.6596985,1
2390,9.117614999999999,0.57958984,-1.6824341,1
2391,9.0793,0.6071167,-1.6728668000000002,1
2392,9.074508999999999,0.56521606,-1.6644897,1
2393,9.07811,0.596344,-1.6285706,1
2394,9.106842,0.596344,-1.7051849,1
2395,9.1128235,0.59036255,-1.7506714,1
2396,9.052963,0.60832214,-1.658493,1
2397,9.082901,0.59394836,-1.6656799,1
2398,9.136764999999999,0.6023407,-1.7746124,1
2399,9.125992,0.60472107,-1.7626495,1
2400,9.038605,0.5951538000000001,-1.7171631,1
2401,9.072113,0.58917236,-1.6596985,1
2402,9.103241,0.6023407,-1.6417389,1
2403,9.092467999999998,0.55804443,-1.6166076999999999,1
2404,9.070922999999999,0.6059265,-1.6201934999999998,1
2405,9.0793,0.59394836,-1.6896209999999998,1
2406,9.072113,0.61909485,-1.6668854,1
2407,9.084091,0.53889465,-1.6920166,1
2408,9.088882,0.59036255,-1.6752625,1
2409,9.091277999999999,0.58917236,-1.6884308000000001,1
2410,9.099655,0.54248047,-1.6632843000000002,1
2411,9.091277999999999,0.5855713,-1.674057,1
2412,9.085281,0.5783844,-1.6908264,1
2413,9.086487,0.60113525,-1.6620941000000002,1
2414,9.0972595,0.596344,-1.6321564,1
2415,9.114014,0.5520477,-1.6656799,1
2416,9.09845,0.56521606,-1.6549072,1
2417,9.0972595,0.6059265,-1.6225891000000001,1
2418,9.0793,0.6035309,-1.6405487,1
2419,9.090073,0.5855713,-1.6596985,1
2420,9.068527,0.58317566,-1.6393433000000002,1
2421,9.1128235,0.5556488,-1.6908264,1
2422,9.111618,0.5843811,-1.6812439,1
2423,9.123596000000001,0.5855713,-1.6477203,1
2424,9.09845,0.5664215,-1.6884308000000001,1
2425,9.068527,0.58078,-1.6453247,1
2426,9.092467999999998,0.58677673,-1.6944122,1
2427,9.063736,0.6095123,-1.6944122,1
2428,9.099655,0.5927581999999999,-1.6896209999999998,1
2429,9.103241,0.56521606,-1.6656799,1
2430,9.091277999999999,0.56521606,-1.6596985,1
2431,9.081696,0.59036255,-1.6596985,1
2432,9.088882,0.596344,-1.6620941000000002,1
2433,9.066132000000001,0.6131134,-1.6656799,1
2434,9.066132000000001,0.59394836,-1.6608886999999999,1
2435,9.121201,0.5843811,-1.6896209999999998,1
2436,9.102051,0.59994507,-1.7039948,1
2437,9.048172000000001,0.60472107,-1.6513214,1
2438,9.072113,0.5819854999999999,-1.6477203,1
2439,9.134369,0.5676116999999999,-1.7363129000000002,1
2440,9.130783000000001,0.5819854999999999,-1.7434998,1
2441,9.086487,0.59994507,-1.6429291000000001,1
2442,9.096069,0.5676116999999999,-1.6261749,1
2443,9.092467999999998,0.5640259,-1.6237793,1
2444,9.069733,0.5771941999999999,-1.6824341,1
2445,9.0577545,0.59754944,-1.6620941000000002,1
2446,9.091277999999999,0.5879669,-1.6884308000000001,1
2447,9.093674,0.5843811,-1.6884308000000001,1
2448,9.0577545,0.58917236,-1.7123718,1
2449,9.094864,0.59394836,-1.6836395,1
2450,9.082901,0.5771941999999999,-1.7039948,1
2451,9.105637,0.5592345999999999,-1.6968078999999998,1
2452,9.09845,0.576004,-1.7123718,1
2453,9.06015,0.5532531999999999,-1.7195586999999999,1
2454,9.050568,0.59036255,-1.7327118000000001,1
2455,9.07811,0.58078,-1.7351074,1
2456,9.091277999999999,0.5640259,-1.729126,1
2457,9.068527,0.5664215,-1.74469,1
2458,9.088882,0.5987395999999999,-1.7506714,1
2459,9.07811,0.58677673,-1.7506714,1
2460,9.085281,0.58317566,-1.7662354,1
2461,9.038605,0.5855713,-1.7614441000000003,1
2462,9.054169,0.61550903,-1.768631,1
2463,9.064941000000001,0.6131134,-1.792572,1
2464,9.080505,0.61909485,-1.7590485,1
2465,9.052963,0.596344,-1.792572,1
2466,9.043396000000001,0.5843811,-1.792572,1
2467,9.068527,0.59754944,-1.7901764,1
2468,9.081696,0.63705444,-1.7853851000000003,1
2469,9.037399,0.59036255,-1.8165131,1
2470,9.050568,0.59036255,-1.7961731,1
2471,9.067337,0.57958984,-1.8177185000000002,1
2472,9.044586,0.56881714,-1.8093261999999999,1
2473,9.041,0.596344,-1.7853851000000003,1
2474,9.0733185,0.55444336,-1.8440552,1
2475,9.076903999999999,0.5843811,-1.8751678,1
2476,9.014664,0.58677673,-1.8452453999999998,1
2477,9.035003999999999,0.56521606,-1.8416595000000002,1
2478,9.115219,0.5448761,-1.8799591,1
2479,9.075714,0.5700073,-1.8967285,1
2480,9.042191,0.5676116999999999,-1.8584136999999998,1
2481,9.0733185,0.56044006,-1.8189087,1
2482,9.0793,0.55444336,-1.8500366000000001,1
2483,9.029022,0.5783844,-1.8093261999999999,1
2484,9.041,0.56521606,-1.8237,1
2485,9.0577545,0.5855713,-1.808136,1
2486,9.076903999999999,0.5987395999999999,-1.7973633000000002,1
2487,9.075714,0.62268066,-1.8344726999999998,1
2488,9.076903999999999,0.6238861,-1.784195,1
2489,9.066132000000001,0.5568390000000001,-1.7506714,1
2490,9.070922999999999,0.57121277,-1.7255401999999997,1
2491,9.085281,0.5819854999999999,-1.7255401999999997,1
2492,9.068527,0.596344,-1.7434998,1
2493,9.062546000000001,0.5951538000000001,-1.7650452,1
2494,9.052963,0.55444336,-1.7411041,1
2495,9.081696,0.56044006,-1.6956023999999998,1
2496,9.068527,0.5532531999999999,-1.7231445,1
2497,9.069733,0.54966736,-1.7027893,1
2498,9.0972595,0.5592345999999999,-1.6968078999999998,1
2499,9.076903999999999,0.5736084,-1.7003936999999998,1
2500,9.075714,0.55085754,-1.7111664,1
2501,9.100845,0.5448761,-1.7219391,1
2502,9.056564,0.54367065,-1.6812439,1
2503,9.085281,0.5568390000000001,-1.6704712,1
2504,9.068527,0.58078,-1.7123718,1
2505,9.096069,0.56521606,-1.6956023999999998,1
2506,9.099655,0.54966736,-1.7315216,1
2507,9.086487,0.5700073,-1.7279358,1
2508,9.072113,0.59155273,-1.6405487,1
2509,9.12001,0.5592345999999999,-1.6944122,1
2510,9.07811,0.5556488,-1.7003936999999998,1
2511,9.046982,0.56521606,-1.7207488999999998,1
2512,9.081696,0.5592345999999999,-1.6812439,1
2513,9.136764999999999,0.54966736,-1.7806091,1
2514,9.092467999999998,0.59394836,-1.7806091,1
2515,9.086487,0.5771941999999999,-1.7626495,1
2516,9.069733,0.56163025,-1.6884308000000001,1
2517,9.09845,0.5771941999999999,-1.6644897,1
2518,9.076903999999999,0.5736084,-1.6704712,1
2519,9.062546000000001,0.6023407,-1.6632843000000002,1
2520,9.055359,0.5927581999999999,-1.6668854,1
2521,9.080505,0.596344,-1.6513214,1
2522,9.054169,0.6059265,-1.6896209999999998,1
2523,9.027832,0.61550903,-1.7135619999999998,1
2524,9.069733,0.56044006,-1.7219391,1
2525,9.1128235,0.56881714,-1.6788483,1
2526,9.135558999999999,0.5448761,-1.6716613999999999,1
2527,9.07811,0.59155273,-1.6716613999999999,1
2528,9.070922999999999,0.5568390000000001,-1.6932220000000002,1
2529,9.07811,0.5783844,-1.6752625,1
2530,9.063736,0.541275,-1.7243346999999998,1
2531,9.069733,0.5460663,-1.7231445,1
2532,9.075714,0.5676116999999999,-1.6896209999999998,1
2533,9.084091,0.54008484,-1.6944122,1
2534,9.099655,0.54248047,-1.6788483,1
2535,9.085281,0.55085754,-1.7099761999999998,1
2536,9.062546000000001,0.56521606,-1.6836395,1
2537,9.080505,0.5819854999999999,-1.6573029,1
2538,9.075714,0.5628357,-1.6824341,1
2539,9.086487,0.5628357,-1.697998,1
2540,9.093674,0.5664215,-1.6968078999999998,1
2541,9.117614999999999,0.59754944,-1.7255401999999997,1
2542,9.087677000000001,0.58917236,-1.6872253000000001,1
2543,9.090073,0.541275,-1.7231445,1
2544,9.115219,0.55804443,-1.729126,1
2545,9.046982,0.59155273,-1.7015991000000001,1
2546,9.052963,0.58917236,-1.7111664,1
2547,9.0972595,0.59155273,-1.7099761999999998,1
2548,9.111618,0.5628357,-1.8057404,1
2549,9.090073,0.6166991999999999,-1.8224945,1
2550,9.075714,0.56521606,-1.7398987000000001,1
2551,9.064941000000001,0.5376892,-1.7351074,1
2552,9.07811,0.55085754,-1.6920166,1
2553,9.068527,0.596344,-1.7578582999999999,1
2554,9.064941000000001,0.5736084,-1.7279358,1
2555,9.054169,0.5700073,-1.7411041,1
2556,9.064941000000001,0.5783844,-1.7135619999999998,1
2557,9.067337,0.60113525,-1.7219391,1
2558,9.084091,0.57958984,-1.7279358,1
2559,9.0793,0.56521606,-1.6836395,1
2560,9.102051,0.56044006,-1.7147675,1
2561,9.118805,0.6143036000000001,-1.7315216,1
2562,9.086487,0.5951538000000001,-1.7063903999999999,1
2563,9.080505,0.5879669,-1.7195586999999999,1
2564,9.074508999999999,0.5568390000000001,-1.7123718,1
2565,9.069733,0.536499,-1.7075806,1
2566,9.096069,0.5855713,-1.7027893,1
2567,9.076903999999999,0.6131134,-1.6656799,1
2568,9.094864,0.58917236,-1.7351074,1
2569,9.094864,0.59394836,-1.7243346999999998,1
2570,9.080505,0.57958984,-1.6968078999999998,1
2571,9.068527,0.5736084,-1.7027893,1
2572,9.091277999999999,0.58078,-1.6944122,1
2573,9.109222,0.59994507,-1.7075806,1
2574,9.076903999999999,0.59155273,-1.6573029,1
2575,9.06134,0.5855713,-1.6441345,1
2576,9.102051,0.5951538000000001,-1.7255401999999997,1
2577,9.063736,0.57958984,-1.7267303,1
2578,9.051772999999999,0.5568390000000001,-1.6489258000000002,1
2579,9.082901,0.59155273,-1.6776581000000002,1
2580,9.134369,0.576004,-1.7758179,1
2581,9.121201,0.56881714,-1.7973633000000002,1
2582,9.054169,0.60113525,-1.6992035,1
2583,9.068527,0.54966736,-1.6656799,1
2584,9.103241,0.5484619000000001,-1.6513214,1
2585,9.066132000000001,0.5664215,-1.6429291000000001,1
2586,9.076903999999999,0.5700073,-1.6704712,1
2587,9.063736,0.5951538000000001,-1.6884308000000001,1
2588,9.062546000000001,0.5783844,-1.6920166,1
2589,9.069733,0.59394836,-1.7171631,1
2590,9.105637,0.5736084,-1.6860351999999998,1
2591,9.093674,0.5640259,-1.6453247,1
2592,9.133179,0.56881714,-1.6405487,1
2593,9.082901,0.5879669,-1.6836395,1
2594,9.0733185,0.59036255,-1.6596985,1
2595,9.0793,0.5484619000000001,-1.6644897,1
2596,9.104446000000001,0.5640259,-1.6393433000000002,1
2597,9.069733,0.541275,-1.674057,1
2598,9.06015,0.5592345999999999,-1.7087708,1
2599,9.091277999999999,0.5640259,-1.6668854,1
2600,9.096069,0.58078,-1.6644897,1
2601,9.109222,0.58917236,-1.6513214,1
2602,9.104446000000001,0.59155273,-1.6549072,1
2603,9.080505,0.57958984,-1.7003936999999998,1
2604,9.103241,0.5819854999999999,-1.6656799,1
2605,9.109222,0.53170776,-1.6704712,1
2606,9.0793,0.5376892,-1.6644897,1
2607,9.074508999999999,0.5747985999999999,-1.6560974,1
2608,9.0972595,0.5987395999999999,-1.7279358,1
2609,9.081696,0.596344,-1.7458801,1
2610,9.052963,0.5520477,-1.6764526000000002,1
2611,9.0733185,0.5771941999999999,-1.614212,1
2612,9.160706,0.59155273,-1.6872253000000001,1
2613,9.12001,0.61190796,-1.6728668000000002,1
2614,9.082901,0.58917236,-1.6369476,1
2615,9.102051,0.54966736,-1.6201934999999998,1
2616,9.111618,0.6071167,-1.5950469999999999,1
2617,9.072113,0.56044006,-1.6118164,1
2618,9.067337,0.5783844,-1.6620941000000002,1
2619,9.093674,0.58917236,-1.7159576,1
2620,9.06015,0.5951538000000001,-1.7111664,1
2621,9.090073,0.58677673,-1.674057,1
2622,9.075714,0.5927581999999999,-1.6788483,1
2623,9.082901,0.596344,-1.6800537,1
2624,9.094864,0.5771941999999999,-1.6992035,1
2625,9.104446000000001,0.5927581999999999,-1.7243346999999998,1
2626,9.090073,0.5879669,-1.7303313999999999,1
2627,9.085281,0.5676116999999999,-1.7111664,1
2628,9.100845,0.5592345999999999,-1.7087708,1
2629,9.094864,0.55444336,-1.6908264,1
2630,9.070922999999999,0.5532531999999999,-1.7051849,1
2631,9.054169,0.58078,-1.7279358,1
2632,9.076903999999999,0.5520477,-1.7554626,1
2633,9.102051,0.5472716999999999,-1.7171631,1
2634,9.055359,0.57121277,-1.7470856,1
2635,9.068527,0.56881714,-1.7147675,1
2636,9.092467999999998,0.5736084,-1.7171631,1
2637,9.080505,0.55444336,-1.7590485,1
2638,9.070922999999999,0.55444336,-1.7542725,1
2639,9.06015,0.56881714,-1.8105316000000002,1
2640,9.045776,0.61190796,-1.7087708,1
2641,9.082901,0.5592345999999999,-1.7554626,1
2642,9.07811,0.58317566,-1.7770080000000001,1
2643,9.029022,0.59155273,-1.808136,1
2644,9.069733,0.56163025,-1.7770080000000001,1
2645,9.118805,0.5819854999999999,-1.808136,1
2646,9.082901,0.5879669,-1.863205,1
2647,9.054169,0.576004,-1.7734221999999997,1
2648,9.055359,0.54008484,-1.7853851000000003,1
2649,9.096069,0.57121277,-1.8057404,1
2650,9.033813,0.58917236,-1.8392639,1
2651,9.050568,0.5819854999999999,-1.832077,1
2652,9.067337,0.56881714,-1.8344726999999998,1
2653,9.092467999999998,0.5628357,-1.8093261999999999,1
2654,9.1128235,0.59994507,-1.8153229,1
2655,9.090073,0.5879669,-1.7339171999999998,1
2656,9.110428,0.5472716999999999,-1.7411041,1
2657,9.091277999999999,0.596344,-1.7339171999999998,1
2658,9.104446000000001,0.6035309,-1.7518768,1
2659,9.041,0.56163025,-1.7375029999999998,1
2660,9.080505,0.5819854999999999,-1.7075806,1
2661,9.092467999999998,0.55444336,-1.6788483,1
2662,9.066132000000001,0.55804443,-1.7171631,1
2663,9.076903999999999,0.55804443,-1.7015991000000001,1
2664,9.07811,0.59754944,-1.6632843000000002,1
2665,9.054169,0.57240295,-1.6896209999999998,1
2666,9.088882,0.576004,-1.7039948,1
2667,9.075714,0.5484619000000001,-1.6848296999999999,1
2668,9.075714,0.5556488,-1.6800537,1
2669,9.114014,0.55444336,-1.6752625,1
2670,9.122391,0.5783844,-1.7063903999999999,1
2671,9.084091,0.5700073,-1.6668854,1
2672,9.104446000000001,0.5676116999999999,-1.6549072,1
2673,9.070922999999999,0.5987395999999999,-1.6668854,1
2674,9.117614999999999,0.54966736,-1.6656799,1
2675,9.085281,0.58317566,-1.6549072,1
2676,9.039795,0.5771941999999999,-1.614212,1
2677,9.116408999999999,0.5819854999999999,-1.6704712,1
2678,9.124786,0.56044006,-1.7219391,1
2679,9.125992,0.5532531999999999,-1.7135619999999998,1
2680,9.07811,0.53889465,-1.6489258000000002,1
2681,9.109222,0.5269165,-1.6453247,1
2682,9.127182000000001,0.56044006,-1.6549072,1
2683,9.085281,0.56163025,-1.6704712,1
2684,9.0972595,0.59394836,-1.6596985,1
2685,9.088882,0.57958984,-1.6704712,1
2686,9.042191,0.58078,-1.6309662,1
2687,9.0972595,0.5819854999999999,-1.6465302,1
2688,9.088882,0.5460663,-1.6381531,1
2689,9.115219,0.55085754,-1.6189879999999999,1
2690,9.129578,0.61550903,-1.650116,1
2691,9.074508999999999,0.59155273,-1.6381531,1
2692,9.086487,0.5747985999999999,-1.6489258000000002,1
2693,9.103241,0.5556488,-1.6573029,1
2694,9.103241,0.5676116999999999,-1.6261749,1
2695,9.07811,0.5520477,-1.614212,1
2696,9.110428,0.5520477,-1.614212,1
2697,9.096069,0.5843811,-1.6177979,1
2698,9.105637,0.58078,-1.6525116000000002,1
2699,9.090073,0.61550903,-1.7063903999999999,1
2700,9.094864,0.5664215,-1.6716613999999999,1
2701,9.082901,0.61190796,-1.658493,1
2702,9.096069,0.5676116999999999,-1.6094208,1
2703,9.102051,0.56044006,-1.6836395,1
2704,9.0972595,0.5628357,-1.6417389,1
2705,9.091277999999999,0.57121277,-1.6465302,1
2706,9.085281,0.5664215,-1.6285706,1
2707,9.102051,0.5676116999999999,-1.6285706,1
2708,9.102051,0.54966736,-1.6333618,1
2709,9.07811,0.58677673,-1.6285706,1
2710,9.063736,0.5855713,-1.6070251,1
2711,9.100845,0.541275,-1.6465302,1
2712,9.091277999999999,0.5927581999999999,-1.6824341,1
2713,9.066132000000001,0.6035309,-1.6525116000000002,1
2714,9.0793,0.5747985999999999,-1.6429291000000001,1
2715,9.171478,0.5771941999999999,-1.7147675,1
2716,9.110428,0.5951538000000001,-1.7698363999999998,1
2717,9.070922999999999,0.5771941999999999,-1.6620941000000002,1
2718,9.068527,0.5245209,-1.6070251,1
2719,9.081696,0.5520477,-1.6441345,1
2720,9.081696,0.5771941999999999,-1.6608886999999999,1
2721,9.076903999999999,0.59036255,-1.614212,1
2722,9.084091,0.5879669,-1.6537169999999999,1
2723,9.094864,0.576004,-1.6716613999999999,1
2724,9.102051,0.56881714,-1.6884308000000001,1
2725,9.103241,0.57958984,-1.6453247,1
2726,9.117614999999999,0.5484619000000001,-1.6752625,1
2727,9.111618,0.56521606,-1.6321564,1
2728,9.1128235,0.5640259,-1.6489258000000002,1
2729,9.070922999999999,0.58317566,-1.6656799,1
2730,9.076903999999999,0.59394836,-1.6704712,1
2731,9.1128235,0.57240295,-1.6417389,1
2732,9.082901,0.55804443,-1.6321564,1
2733,9.081696,0.5664215,-1.6405487,1
2734,9.096069,0.5855713,-1.6130066,1
2735,9.111618,0.576004,-1.6369476,1
2736,9.096069,0.58677673,-1.6560974,1
2737,9.07811,0.5736084,-1.6525116000000002,1
2738,9.133179,0.5532531999999999,-1.650116,1
2739,9.0793,0.5927581999999999,-1.6525116000000002,1
