,AccX[m/s^2],AccY[m/s^2],AccZ[m/s^2],label
0,8.784821,-0.49899292,-1.0910796999999999,1
1,8.784821,-0.49899292,-1.0910796999999999,1
2,8.80397,-0.5337219,-1.3101501,1
3,9.228943,-0.43675232,-1.90271,1
4,9.019455,-0.0021972656,-1.8237,1
5,9.091277999999999,-0.3074646,-1.3544312,1
6,9.47435,0.09954834,-2.3252869,1
7,9.397736,0.25875854,-1.3460541000000001,1
8,9.517441,0.24200439999999998,-0.5104827999999999,1
9,8.757278,0.46705627,-0.23155212,1
10,9.451599,-0.31584167,-0.7738341999999999,1
11,8.90213,-0.54927063,-1.1712798999999998,1
12,9.0793,-0.36013794,-1.0515747,1
13,9.13916,0.21087646,-1.4466094999999999,1
14,9.076903999999999,0.36410522,-1.4645691,1
15,9.189438,0.59754944,-1.4549866000000002,1
16,9.228943,0.5556488,-1.5256195,1
17,9.099655,0.31861877,-1.7075806,1
18,9.020645,-0.02255249,-1.8787688999999999,1
19,8.914108,-0.22486877,-1.8296814,1
20,9.056564,-0.41520690000000005,-1.9637604,1
21,9.199005,-0.55885315,-1.9912872,1
22,9.009872,-0.5349121,-1.8584136999999998,1
23,9.12001,-0.37928772,-1.5854796999999998,1
24,9.596451,-0.38049316,-1.6764526000000002,1
25,9.790375,-0.37809753,-1.7267303,1
26,9.961563,-0.3768921,-1.8667908,1
27,9.768829,-0.30267334,-2.0355835,1
28,9.797562,-0.50138855,-2.2187347,1
29,9.105637,-0.18894958,-2.1576842999999997,1
30,8.916504,0.009765625,-2.0164337,1
31,8.739319,0.26115417,-1.6764526000000002,1
32,8.686661,0.30426025,-1.7614441000000003,1
33,8.507095,0.26475525,-2.163681,1
34,8.469971000000001,0.13786316,-2.71315,1
35,8.744110000000001,0.16539001,-2.6724396,1
36,8.203018,-0.3876648,-3.1081847999999996,1
37,7.6176452999999995,-0.014175415,-3.5583038,1
38,7.2860413,0.87527466,-4.187973,1
39,7.849883999999999,1.2954558999999999,-3.9880524,1
40,8.935654,0.64183044,-3.484085,1
41,9.220566,0.4802246,-3.4756927,1
42,8.305969000000001,0.675354,-4.469299299999999,1
43,7.881011999999999,0.61190796,-4.729065,1
44,8.48674,-0.38647459999999995,-4.630905,1
45,9.961563,-2.044464,-3.6373138,1
46,10.046555,-4.1298065,-3.4182434,1
47,10.035782000000001,-3.8879851999999997,-5.259384,1
48,9.655106,-1.9522858,-6.3355713,1
49,9.386963,0.11869812,-5.654419,1
50,8.039017,1.947876,-3.9593199999999995,1
51,7.436874400000001,1.2212372,-3.4373932000000003,1
52,7.785232499999999,-0.59716797,-4.3878937,1
53,8.164719,-1.3872528,-5.148041,1
54,8.414916999999999,-1.0736084,-5.624496499999999,1
55,7.478775,0.22764587,-5.358733999999999,1
56,6.8718414,1.2774963,-4.855957,1
57,6.6575622999999995,1.4953766000000002,-4.665619,1
58,7.2716827,0.6849365,-4.798492400000001,1
59,8.120422,-0.6354675,-5.148041,1
60,7.907333400000001,-1.8768616000000002,-5.911804,1
61,7.7996063,-2.1174774,-6.0470734,1
62,7.430892999999999,-1.5045624,-4.930176,1
63,6.798828,-1.0628357,-3.6648407,1
64,5.486801,-0.95988464,-3.887497,1
65,4.5554657,-0.83418274,-5.195938,1
66,5.6747437000000005,0.38804626,-4.6596375,1
67,6.545044,1.5576172,-3.7390594,1
68,6.846710000000001,2.026886,-3.6624449999999995,1
69,7.379425,1.4726257,-4.9253845,1
70,8.1371765,0.23123169,-6.088973999999999,1
71,8.802764999999999,0.02772522,-6.0326996,1
72,8.334702,0.9387207000000001,-5.063049299999999,1
73,7.4524384,1.9921721999999997,-4.0239716,1
74,5.8519135,2.6577606,-3.3176879999999995,1
75,4.848755000000001,2.6769104,-3.7342682000000003,1
76,2.85318,2.2303925,-4.9600983,1
77,1.9852753,1.9562529999999998,-6.396621700000001,1
78,4.1999207,0.7842865,-5.942917,1
79,9.167892,-0.15782166,-4.6871643,1
80,10.317108000000001,0.30784607,-5.2258606,1
81,10.555328,1.1589813,-5.6759644,1
82,8.424484,0.5472716999999999,-6.112915,1
83,7.078949000000001,-0.30267334,-5.8974304,1
84,6.1547849999999995,-0.79348755,-5.254593,1
85,6.6264496,-0.30865479999999995,-5.4150085,1
86,7.5589905,0.7028960999999999,-5.5107726999999995,1
87,8.029449000000001,1.5468445,-5.5490723,1
88,8.370621,1.4558716,-5.6687927,1
89,8.167114,0.49459840000000005,-6.3559265,1
90,7.7924194,-0.10395813,-7.927719000000001,1
91,8.997894,-0.5169524999999999,-6.954467999999999,1
92,7.278869599999999,0.5472716999999999,-6.224243,1
93,7.5913086,0.6466217,-5.701111,1
94,6.4217377,1.4008026000000002,-7.0011597000000005,1
95,8.001907000000001,0.98420715,-7.578155499999999,1
96,8.052185,0.9674530000000001,-7.61528,1
97,7.541030999999999,0.80345154,-7.246567,1
98,7.920501700000001,0.24919128,-6.8670807,1
99,7.794815,0.1797638,-6.287689,1
100,7.623626700000001,0.62628174,-6.105728,1
101,7.963608,1.1661682,-7.055022999999999,1
102,8.566939999999999,0.58917236,-7.181915299999999,1
103,9.345061999999999,-0.03930664,-7.155578599999999,1
104,11.060501,-0.19972229,-6.5151367,1
105,10.837845,0.5676116999999999,-6.4349365,1
106,10.586456,0.42755127,-5.982422,1
107,10.088455,1.3493195,-4.4992220000000005,1
108,9.170288000000001,1.7551421999999999,-4.0910034,1
109,8.827911,1.3696747,-2.9812927000000005,1
110,8.953613,0.7938689999999999,-2.625763,1
111,8.855438000000001,0.2695465,-3.2422638,1
112,8.795592999999998,0.48980713,-3.1776276,1
113,8.502303999999999,0.769928,-2.764618,1
114,8.600464,1.0428619000000001,-2.47612,1
115,8.18985,0.5376892,-2.310913,1
116,8.1766815,0.1845398,-2.326477,1
117,8.899734500000001,0.036102295,-2.2654266,1
118,9.103241,-0.0045928955,-2.4318237000000003,1
119,9.188232000000001,-0.12310791,-2.5180206000000003,1
120,9.355835,0.033706665,-2.2259216,1
121,9.39534,0.34016418,-1.8943328999999998,1
122,9.424072,0.259964,-1.6776581000000002,1
123,9.160706,0.2707367,-1.8679961999999999,1
124,8.995499,0.33059692,-1.6070251,1
125,8.911713,0.28749084,-1.3975372,1
126,8.899734500000001,0.115112305,-1.164093,1
127,9.154724,0.110321045,-0.9402313,1
128,9.371399,0.2300415,-0.8289032,1
129,9.422867,0.46826172,-0.8899536,1
130,8.809952000000001,0.13786316,-2.0846709999999997,1
131,9.80954,0.03970337,-2.8244781000000003,1
132,10.400894000000001,0.19412231,-3.6492767,1
133,9.415695,0.61909485,-2.9908752,1
134,8.207809,0.92315674,-2.3647918999999997,1
135,7.3889923,-0.27514648,-2.0427703999999998,1
136,8.414916999999999,-0.8461609,-2.6568756000000002,1
137,10.141129,-0.54089355,-3.0447387999999997,1
138,9.614410000000001,-0.59954834,-2.5323792000000003,1
139,8.783615,-0.20330810000000002,-1.7207488999999998,1
140,8.716583,-0.6414489999999999,-1.3675995,1
141,8.671097,-0.89404297,-1.9410095,1
142,8.783615,-0.739624,-2.2438812,1
143,9.337875,-0.5444945999999999,-2.1110077,1
144,9.201400999999999,-0.67736816,-2.2486725,1
145,9.072113,-0.16979979999999997,-2.4042969,1
146,9.1128235,-0.40322876,-2.3216857999999996,1
147,9.170288000000001,-1.0317078000000002,-2.1564941,1
148,9.205002,-0.8317870999999999,-1.7566681,1
149,8.631592,-0.8174286000000001,-1.7327118000000001,1
150,8.106064,-1.1538086,-1.535202,1
151,8.727356,-1.5895538,-1.3712006,1
152,9.230133,-1.234024,-1.4897003,1
153,8.993117999999999,-0.9143982,-1.9338379,1
154,8.618423,-0.5851898,-2.2331084999999997,1
155,8.788406,-0.56843567,-1.8859406000000003,1
156,9.398926,0.6861267,-1.9458008000000002,1
157,9.799957000000001,2.0855408,-2.3707732999999998,1
158,9.835875999999999,2.488968,-2.5180206000000003,1
159,10.001068,1.7443695,-2.4976654,1
160,9.691025,1.114685,-2.5575256,1
161,9.33548,0.34255979999999997,-2.3276825,1
162,8.909317,-0.17578125,-2.3013458,1
163,8.880585,-0.066848755,-2.1469116,1
164,8.40892,-0.23683167,-2.1457214,1
165,8.515472,-0.68933105,-2.4641417999999997,1
166,9.519836,-1.0736084,-3.0088348,1
167,8.714188,-1.2962646,-3.5666809999999995,1
168,8.497513,-1.0843811,-3.0507202,1
169,9.110428,-1.2902832,-2.6916046000000002,1
170,9.483917,-0.93115234,-2.6497040000000003,1
171,9.572510000000001,-0.79467773,-2.4497833,1
172,9.814316,-0.6007538,-2.3935242000000003,1
173,9.279221000000001,-0.8581238000000001,-2.2594452,1
174,8.967972,-1.1083221,-2.4114685000000002,1
175,8.323929,-1.1681823999999998,-2.7346953999999997,1
176,8.356247,-0.3589325,-2.3288727000000002,1
177,8.422089,-0.13029480000000002,-1.7614441000000003,1
178,8.429275500000001,0.19770813,-1.8703918000000002,1
179,8.592087,0.35932922,-1.7422943,1
180,8.960785000000001,0.2707367,-2.0667114,1
181,9.136764999999999,0.22045898,-1.9721375,1
182,9.676651,0.25637817,-1.9422150000000002,1
183,9.759262,0.41438293,-1.4274597,1
184,9.697006,0.259964,-0.87319946,1
185,9.282805999999999,0.4658661,-0.5811156999999999,1
186,8.869812,0.6023407,-0.37400818,1
187,8.876999,0.010971068999999998,0.05694580000000001,1
188,8.971558,-0.30865479999999995,0.022232056,1
189,8.947617,-0.41400146,-0.14057922,1
190,9.230133,-0.5205536000000001,-0.0041046143,1
191,9.263657,-0.42477417,0.1946106,1
192,9.179855,-0.23324585,0.2808075,1
193,9.218169999999999,-0.23803711,0.33827209999999996,1
194,9.015854,-0.6522217,0.56092834,1
195,8.795592999999998,-1.0053710999999999,0.6351471,1
196,8.929672,-1.1933136,0.53219604,1
197,9.415695,-1.0233306999999998,0.41488647,1
198,9.863403,-0.6510315,0.18862915,1
199,9.8645935,-0.31344604,0.084472656,1
200,8.941635,-0.17338562,-0.6948395,1
201,9.295975,-0.090789795,-0.0627594,1
202,10.020218,-0.41400146,0.34544373,1
203,9.698196000000001,-0.13627625,0.21855164,1
204,9.175064,0.20848083,0.18981934,1
205,8.661514,0.39404297,0.5776825,1
206,8.696228,0.22764587,0.92485046,1
207,9.006287,-0.04888916,0.90808105,1
208,9.069733,-0.1590271,0.6255646,1
209,9.382172,-0.0010070800999999999,0.48310852,1
210,9.732925,0.18574524,0.46516418,1
211,9.813125999999999,0.13786316,0.6279602,1
212,9.635956,-0.09677124,0.59324646,1
213,9.185837,-0.20809937,0.3705902,1
214,9.099655,-0.27514648,0.29516602,1
215,9.063736,-0.46548462,0.30354309999999995,1
216,9.100845,-0.6653899999999999,0.2808075,1
217,9.312744,-0.7276459,0.16947937,1
218,9.495894999999999,-0.7958831999999999,-0.06036377,1
219,9.406113000000001,-0.6761626999999999,-0.377594,1
220,9.274429,-0.3146515,-0.5571594,1
221,9.030228,0.05885315,-0.5056915,1
222,9.15831,0.26115417,0.15750122,1
223,9.579697,0.16059875,0.44599915,1
224,9.724533000000001,-0.054870605,0.35861206,1
225,9.637146000000001,-0.34457397,0.22932434,1
226,9.268448,-0.621109,0.30116272,1
227,9.032608,-0.55885315,0.38136292,1
228,9.006287,-0.32063293,0.36819458,1
229,9.115219,-0.064453125,0.35861206,1
230,9.301956,-0.050079346,0.23052979,1
231,9.467163000000001,-0.15423584,0.034194946000000004,1
232,9.555756,-0.31942750000000003,0.01864624,1
233,9.543777,-0.37570190000000003,0.058151245,1
234,9.397736,-0.2966919,0.120391846,1
235,9.191833500000001,-0.3002777,0.04975891,1
236,9.110428,-0.31105042,0.106033325,1
237,9.194229,-0.33140564,0.17785645,1
238,9.293579,-0.28352356,0.18025208,1
239,9.179855,-0.21170044,0.04975891,1
240,9.206192,-0.2787323,0.022232056,1
241,9.343857,-0.27035522,0.05215454,1
242,9.364212,-0.2320404,0.34664917,1
243,9.268448,-0.19493103,0.46635437,1
244,9.220566,-0.102752686,0.51304626,1
245,9.225342,-0.13388062,0.5058594,1
246,9.321121,-0.17098999,0.50346375,1
247,9.392944,-0.28352356,0.41488647,1
248,9.367797999999999,-0.29429626,0.36340332,1
249,9.263657,-0.17817688,0.4328308,1
250,9.188232000000001,-0.117126465,0.5118408,1
251,9.123596000000001,-0.16619873,0.47593690000000005,1
252,9.153519000000001,-0.2787323,0.44960022,1
253,9.166687,-0.2799225,0.46516418,1
254,9.284011999999999,-0.13986206,0.52500916,1
255,9.3546295,-0.09437561,0.6375427,1
256,9.388152999999999,-0.23085022,0.6052246,1
257,9.343857,-0.5253296,0.4220581,1
258,9.500687,-0.8988341999999999,0.13476563,1
259,9.473145,-0.9550934000000001,0.06892395,1
260,9.295975,-0.68455505,0.19700623,1
261,9.0733185,-0.22845459,0.46754456,1
262,8.959595,0.074417114,0.5944519,1
263,9.054169,0.03491211,0.65071106,1
264,9.463577,-0.17098999,0.61239624,1
265,9.613205,-0.3876648,0.5190277,1
266,9.406113000000001,-0.48582458,0.6255646,1
267,9.254074000000001,-0.5923767,0.79914856,1
268,9.082901,-0.6330719,0.9416046,1
269,9.133179,-0.6653899999999999,0.844635,1
270,9.327103,-0.50738525,0.5154419,1
271,9.498291,-0.30387878,0.3131256,1
272,9.439636,-0.062057495,0.23890686,1
273,9.306747,-0.04888916,0.082092285,1
274,9.29718,-0.117126465,0.091659546,1
275,9.3941345,-0.30387878,0.10961914,1
276,9.385757,-0.42837524,0.54296875,1
277,9.327103,-0.33380127,0.70936584,1
278,8.894943,-0.22486877,0.7428894,1
279,8.76207,-0.26795959999999996,0.760849,1
280,9.121201,-0.7851104999999999,1.0373688,1
281,9.410903999999999,-1.0388947,1.0098419,1
282,9.530609,-0.7886963,0.9703369000000001,1
283,9.5354,-0.38887024,0.95835876,1
284,9.3546295,-0.04170227,0.96195984,1
285,9.293579,0.07081604,1.1032104,1
286,9.311539,-0.32661438,1.0804749,1
287,9.2708435,-0.68574524,0.89372253,1
288,9.178664999999999,-0.7108916999999999,0.6602783,1
289,9.054169,-0.55526733,0.6100005999999999,1
290,9.291183,-0.44631958,0.5704956,1
291,9.333084,-0.31344604,0.29516602,1
292,9.281616,-0.21528625,0.16827393,1
293,9.4133,-0.093185425,0.22453308,1
294,9.39653,-0.17098999,0.43164063,1
295,9.005081,-0.26316833,0.5633239999999999,1
296,8.820724499999999,-0.38647459999999995,0.69140625,1
297,8.896149000000001,-0.6761626999999999,0.83984375,1
298,8.936844,-0.9167938,0.8147125,1
299,9.178664999999999,-0.74679565,0.9679413,1
300,9.130783000000001,-0.51815796,1.2372893999999999,1
301,9.143951,-0.33380127,1.45755,1
302,9.325911999999999,-0.0440979,1.6347198,1
303,9.495894999999999,0.04447937,1.8513947,1
304,9.260071,-0.17817688,1.5401611000000002,1
305,8.966782,-0.3254242,1.0577239999999999,1
306,9.291183,-0.22366333,0.90689087,1
307,9.694611,-0.119522095,1.0014648000000002,1
308,9.525818,-0.1877594,0.92245483,1
309,9.2708435,-0.36611938,0.642334,1
310,9.157119999999999,-0.4954071,0.31910706,1
311,9.29718,-0.5313263,0.19221497,1
312,9.382172,-0.4439392,0.04975891,1
313,9.402527000000001,-0.43675232,0.17306519,1
314,9.292389,-0.42118835,0.20179749,1
315,9.170288000000001,-0.33978270000000005,0.37417603,1
316,9.210983,-0.2859192,0.5561371,1
317,9.347458,-0.15663147,0.8422394,1
318,9.374985,-0.13867188,0.9607544,1
319,9.157119999999999,-0.119522095,0.8338623,1
320,9.005081,-0.11831665,0.7692260999999999,1
321,9.052963,-0.3361969,1.0254059000000002,1
322,9.240905999999999,-0.4738617,1.2181396,1
323,9.459976,-0.51216125,1.1690521,1
324,9.513855,-0.41760254,0.9811095999999999,1
325,9.47435,-0.31344604,0.9020995999999999,1
326,9.333084,-0.33738708,0.7835846,1
327,8.860229499999999,-0.44154358,0.8721771,1
328,8.799178999999999,-0.5169524999999999,1.0517426,1
329,9.011063,-0.72883606,1.3665771,1
330,9.4133,-0.8138428000000001,1.3821411,1
331,9.392944,-0.73243713,1.1618652,1
332,9.341461,-0.5325165,1.0110321,1
333,9.233734,-0.29190063,1.0122375,1
334,9.275619500000001,-0.29190063,0.98350525,1
335,9.252884,-0.29908752,0.9607544,1
336,9.284011999999999,-0.20570374,0.8015441999999999,1
337,9.431244,-0.16859436,0.71295166,1
338,9.487518,-0.3541565,0.79914856,1
339,9.232529,-0.59954834,0.80992126,1
340,9.135558999999999,-0.52893066,0.95477295,1
341,9.469559,-0.680954,0.8829498,1
342,9.761642,-0.58039856,0.9775238000000002,1
343,9.603638,-0.31225586,1.1882019,1
344,9.365402,-0.29908752,1.018219,1
345,9.258865,-0.4044342,0.9859009,1
346,9.062546000000001,-0.65701294,0.88653564,1
347,8.918884,-0.8126373,0.49388123,1
348,8.918884,-0.88446045,0.40888977,1
349,8.831497,-0.76116943,0.63035583,1
350,8.829102,-0.6821594,0.7345123,1
351,8.811157000000001,-0.7276459,0.70817566,1
352,9.064941000000001,-0.6977234,0.75605774,1
353,9.755661,-0.44752502,0.95477295,1
354,10.252457000000001,-0.112335205,1.0673065000000002,1
355,10.433228,0.43354797,1.3881226,1
356,9.627578999999999,0.086380005,1.9052734,1
357,8.578918,-1.0005798000000001,1.6407166000000002,1
358,7.5422210000000005,-1.3106383999999998,1.4372101000000002,1
359,7.317169,-1.6110992,1.9998474,1
360,8.125214,-2.0695953,1.6239471,1
361,9.550964,-1.898407,0.27243042,1
362,10.478714,-0.46907043,-0.6182251,1
363,10.28598,0.8776703000000001,-0.57032776,1
364,9.858611999999999,1.6270447000000001,-0.03881836,1
365,9.240905999999999,2.0304718,0.48910522,1
366,8.768051,1.7886658,0.9775238000000002,1
367,8.523849499999999,0.6382445999999999,0.9930725,1
368,8.802764999999999,-0.6402588,0.86380005,1
369,9.3941345,-1.6470183999999997,0.7967529000000001,1
370,9.531799000000001,-1.7487793000000003,0.45916748,1
371,9.687424,-1.1143036,-0.09269714,1
372,9.761642,-0.41760254,-0.33450317,1
373,9.523422,0.0756073,-0.19802856,1
374,9.206192,0.14384460000000002,0.070114136,1
375,8.997894,-0.13388062,0.2233429,1
376,8.957199000000001,-0.71447754,0.5597229,1
377,9.015854,-1.2675323,0.7428894,1
378,9.184647,-1.5249176000000002,0.6746521,1
379,9.491104,-1.3704834,0.6243744000000001,1
380,9.700592,-0.7480011,0.50704956,1
381,9.51265,-0.29429626,0.36698914,1
382,9.382172,-0.09197998,0.34304809999999997,1
383,9.228943,-0.210495,0.27720642,1
384,9.226547,-0.32900999999999997,0.19821167,1
385,9.288788,-0.45710754,0.255661,1
386,9.29837,-0.59117126,0.22692871,1
387,9.179855,-0.70729065,0.2640381,1
388,9.2313385,-0.74560547,0.33467102,1
389,9.339081,-0.7910919,0.3131256,1
390,9.330688,-0.7982788000000001,0.36340332,1
391,9.278015,-0.838974,0.36221313,1
392,9.31752,-0.8377838,0.2987671,1
393,9.347458,-0.7515869000000001,0.27243042,1
394,9.353439,-0.6941223000000001,0.19940186,1
395,9.309142999999999,-0.7527771,0.22215271,1
396,9.278015,-0.69532776,0.2628479,1
397,9.274429,-0.5600586,0.35861206,1
398,9.288788,-0.41520690000000005,0.30593872,1
399,9.278015,-0.3481598,0.26045227,1
400,9.285202,-0.31225586,0.25686646,1
401,9.322311000000001,-0.4044342,0.26524353,1
402,9.410903999999999,-0.3936615,0.15750122,1
403,9.269638,-0.35534668,0.07849121,1
404,9.221756,-0.3146515,0.14074707,1
405,9.2313385,-0.26914978,0.2233429,1
406,9.234924000000001,-0.210495,0.27601624,1
407,9.281616,-0.14106749999999998,0.17306519,1
408,9.341461,-0.16979979999999997,0.103637695,1
409,9.348647999999999,-0.24162292,0.05455017,1
410,9.352234,-0.35534668,0.07849121,1
411,9.329498,-0.39485168,0.15870667,1
412,9.275619500000001,-0.42956543,0.20658875,1
413,9.214569000000001,-0.4379425,0.27720642,1
414,9.175064,-0.4439392,0.26763916,1
415,9.257675,-0.4954071,0.24369812,1
416,9.348647999999999,-0.5528717,0.23651123,1
417,9.346252,-0.60913086,0.24249268,1
418,9.382172,-0.70370483,0.30116272,1
419,9.390549,-0.8688965,0.36460876,1
420,9.365402,-0.99220276,0.3885498,1
421,9.415695,-1.028122,0.33227540000000005,1
422,9.414489999999999,-1.0688171,0.25805664,1
423,9.280411,-0.98143005,0.19940186,1
424,9.221756,-0.7048949999999999,0.23532104,1
425,9.202606,-0.38887024,0.3418579,1
426,9.102051,-0.23803711,0.48789978,1
427,9.175064,-0.289505,0.4184723,1
428,9.288788,-0.32781982,0.21736145,1
429,9.329498,-0.25479126,0.082092285,1
430,9.347458,-0.23324585,0.13476563,1
431,9.346252,-0.13148499,0.103637695,1
432,9.252884,-0.0728302,0.22453308,1
433,9.325911999999999,0.0181427,0.32150270000000003,1
434,9.337875,0.06842041,0.37896729999999995,1
435,9.306747,0.012161255,0.36698914,1
436,9.242111,-0.05847168,0.31910706,1
437,9.178664999999999,-0.10395813,0.2808075,1
438,9.193024000000001,-0.07043457,0.37896729999999995,1
439,9.214569000000001,-0.08480835,0.35861206,1
440,9.224152,-0.081207275,0.3705902,1
441,9.306747,-0.059661865,0.36819458,1
442,9.391739,0.014556885,0.37538147,1
443,9.3103485,0.026535034,0.23532104,1
444,9.2708435,0.031311035,0.14074707,1
445,9.240905999999999,0.06842041,0.04019165,1
446,9.199005,-0.006988525400000001,0.05455017,1
447,9.292389,-0.05847168,0.12757874,1
448,9.397736,-0.054870605,0.070114136,1
449,9.348647999999999,-0.05607605,0.03779602,1
450,9.263657,-0.097976685,0.08567810000000001,1
451,9.264847,-0.17936707,0.23171997,1
452,9.282805999999999,-0.33499146,0.25686646,1
453,9.303162,-0.38887024,0.24009705,1
454,9.269638,-0.34338379999999996,0.11680603,1
455,9.222961,-0.3074646,0.15510559,1
456,9.287598,-0.20451355,0.12159729,1
457,9.328292999999999,-0.13867188,0.06413269,1
458,9.226547,-0.057266235,0.08807373,1
459,9.281616,0.07800293,0.106033325,1
460,9.330688,0.23242188,-0.0053100586,1
461,9.214569000000001,0.34376526,-0.011291503999999999,1
462,9.214569000000001,0.3282013,0.12637329,1
463,9.275619500000001,0.25038147,0.28678894,1
464,9.299576,0.14863586,0.34425354,1
465,9.307953,0.081588745,0.21855164,1
466,9.293579,0.13786316,0.05934143,1
467,9.250488,0.14503479,0.13116455,1
468,9.196625,0.043289185,0.19700623,1
469,9.205002,-0.040512085,0.25686646,1
470,9.163101,-0.08241272,0.36698914,1
471,9.262466,-0.03213501,0.3885498,1
472,9.330688,0.081588745,0.31791687,1
473,9.347458,0.25875854,0.16468811,1
474,9.280411,0.29826355,0.11441040000000001,1
475,9.249298,0.28988647,0.20298767,1
476,9.146347,0.21806335,0.27243042,1
477,9.187042,0.14503479,0.350235,1
478,9.272034,0.17376709,0.40769958,1
479,9.210983,0.02293396,0.49987793,1
480,9.236130000000001,0.01574707,0.4388275,1
481,9.325911999999999,-0.12550354,0.46037292,1
482,9.276825,-0.30387878,0.46754456,1
483,9.361816000000001,-0.25360107,0.3705902,1
484,9.465973,-0.1877594,0.27960205,1
485,9.436035,-0.18176270000000003,0.15989685,1
486,9.39653,-0.20809937,0.120391846,1
487,9.388152999999999,-0.3361969,0.29995728,1
488,9.533005000000001,-0.46188354,0.15989685,1
489,9.922058,-0.07522583,-0.4051361,1
490,10.059723,0.24081421,-0.5535736,1
491,9.603638,0.34255979999999997,-0.39076233,1
492,9.998672500000001,0.68133545,0.120391846,1
493,9.566528,0.53889465,-0.1776886,1
494,9.3701935,0.25398254,-0.15493774,1
495,8.922485,-0.02734375,-0.23873901,1
496,9.001495,-0.124313354,-0.20881653,1
497,9.262466,0.0025787354,-0.159729,1
498,9.407303,0.22644043,-0.111846924,1
499,9.196625,0.5269165,-0.52604675,1
500,9.218169999999999,1.0931396,-0.60624695,1
501,9.51265,1.1003265,-0.58709717,1
502,9.452805,1.1386413999999998,-0.15853882,1
503,9.115219,1.1051178,0.025817871000000003,1
504,8.307175,1.0727997,0.004272461,1
505,8.048599000000001,1.3158112,0.06292724599999999,1
506,8.339493,1.2475739,-0.5691376,1
507,8.642364500000001,1.2918701000000001,-1.0228424,1
508,8.503494,1.4355163999999998,-1.1054382,1
509,8.641159,1.4319305,-0.94143677,1
510,9.461182,1.6869048999999998,-0.6409607,1
511,9.091277999999999,1.4295349,-0.9294585999999999,1
512,8.924881,1.3325653,-0.9953003,1
513,9.894531,0.92555237,-0.9761504999999999,1
514,10.036987,1.0524445,-0.9797363000000001,1
515,9.293579,1.4259338,-1.1497344999999999,1
516,8.894943,1.5540314,-1.0982513,1
517,8.751297000000001,1.4486847,-0.82292175,1
518,8.807556,1.006958,-0.7678528,1
519,8.794388,1.0608215,-0.7307434,1
520,9.264847,1.0739899,-0.69602966,1
521,9.463577,1.1697540000000002,-0.5439911000000001,1
522,9.328292999999999,1.1170806999999998,-0.3153534,1
523,9.37738,1.0955353,0.12397766,1
524,9.31752,1.0739899,0.44241333,1
525,9.210983,0.85372925,0.54296875,1
526,9.189438,0.9530791999999999,0.46635437,1
527,8.928467,1.1182861000000002,0.38375854,1
528,8.674683,0.8513335999999999,0.21138,1
529,8.807556,0.5053711,0.06413269,1
530,9.151123,0.22883606,-0.08551025400000001,1
531,9.382172,0.038497925,-0.13697815,1
532,9.600037,-0.009384155,-0.2291565,1
533,9.649124,0.07081604,-0.5715332,1
534,9.401321000000001,0.28869629999999996,-0.8600310999999999,1
535,9.328292999999999,0.57121277,-0.7965850999999999,1
536,9.436035,0.70887756,-0.590683,1
537,9.415695,0.7184448,-0.33570862,1
538,9.25647,0.77111816,-0.28182983,1
539,9.091277999999999,0.68852234,-0.27464294,1
540,9.262466,0.45988464,-0.23873901,1
541,9.328292999999999,0.37727356,-0.06036377,1
542,9.424072,0.28630066,0.022232056,1
543,9.608414,0.09236145,0.22453308,1
544,9.592865,-0.03930664,0.33348083,1
545,9.458786,-0.04888916,0.45318604,1
546,9.286407,0.03491211,0.43643188,1
547,8.991913,-0.047698975,0.40888977,1
548,9.029022,-0.014175415,0.35263062,1
549,9.147537,0.083984375,0.3131256,1
550,9.249298,0.28869629999999996,0.38136292,1
551,9.278015,0.39404297,0.42805479999999996,1
552,9.33548,0.46466064,0.42805479999999996,1
553,9.33548,0.33178709999999995,0.3885498,1
554,9.3701935,0.01574707,0.18383789,1
555,9.385757,-0.071640015,0.017440796,1
556,9.275619500000001,-0.22007751,0.18025208,1
557,9.190628,-0.54089355,0.13595581,1
558,9.242111,-0.5325165,-0.087905884,1
559,9.464767,-0.52653503,-0.26747129999999997,1
560,9.527023,-0.34457397,-0.42428590000000005,1
561,9.333084,0.21687317,-0.6601104999999999,1
562,9.23732,0.6861267,-0.6840515,1
563,9.278015,0.8202056999999999,-0.6337738,1
564,9.365402,0.72802734,-0.48414612,1
565,9.189438,0.46347046,-0.38478088,1
566,9.208588,0.44311523,-0.35246277,1
567,9.215775,0.54008484,-0.3153534,1
568,9.23732,0.6669769,-0.30218506,1
569,9.264847,0.8118286,-0.26507568,1
570,9.110428,0.7819060999999999,-0.11064148,1
571,8.990723,0.5065613,-0.029251099,1
572,9.041,0.19293213,-0.029251099,1
573,9.23732,0.119903564,0.034194946000000004,1
574,9.3546295,0.14982605,-0.040023803999999996,1
575,9.278015,0.1905365,-0.13697815,1
576,9.273239,0.09715271,-0.18846129999999997,1
577,9.434845,0.107925415,-0.20162964,1
578,9.420471000000001,0.12469482400000001,-0.12620544,1
579,9.406113000000001,0.3102417,-0.30577087,1
580,9.37738,0.55085754,-0.43147278,1
581,9.360626,0.67056274,-0.36921692,1
582,9.230133,0.73521423,-0.21838379,1
583,9.151123,0.71965027,-0.21000671,1
584,9.161896,0.61550903,-0.24472046,1
585,9.279221000000001,0.36410522,-0.16810608,1
586,9.273239,-0.02973938,-0.15853882,1
587,9.2708435,-0.13748169,-0.22796631,1
588,9.340271000000001,0.10194397,-0.46499634,1
589,9.3941345,0.6430359,-0.55477905,1
590,9.29718,0.78907776,-0.417099,1
591,9.187042,0.76634216,-0.34048462,1
592,9.250488,0.62268066,-0.31056213,1
593,9.267242,0.7016906999999999,-0.39076233,1
594,9.136764999999999,0.8740691999999999,-0.3584442,1
595,9.099655,0.8154144,-0.28543090000000004,1
596,9.206192,0.7232360999999999,-0.17170715,1
597,9.205002,0.63705444,-0.05558777,1
598,9.2313385,0.59754944,0.0030822754,1
599,9.185837,0.5257263000000001,-0.05319214,1
600,9.183456,0.32580566,-0.054382324,1
601,9.209793,-0.06564331,0.06292724599999999,1
602,9.225342,-0.30625916,-0.11424255,1
603,9.268448,-0.34936523,-0.33450317,1
604,9.482727,-0.27514648,-0.50927734,1
605,9.627578999999999,0.04927063,-0.51646423,1
606,9.455185,0.74838257,-0.46379090000000006,1
607,9.242111,1.1470183999999999,-0.42907715,1
608,9.268448,1.1278534,-0.39196777,1
609,9.248092999999999,0.8345642,-0.40034485,1
610,9.015854,0.48501587,-0.333313,1
611,9.023041000000001,0.29109192,-0.20881653,1
612,9.173874,0.39283752,-0.014877318999999998,1
613,9.348647999999999,0.5855713,-0.012481688999999999,1
614,9.287598,0.8010559,-0.05079651,1
615,9.242111,0.88723755,-0.120224,1
616,9.227737,0.76634216,-0.24951172,1
617,9.116408999999999,0.6131134,-0.35006714,1
618,9.136764999999999,0.5771941999999999,-0.35006714,1
619,9.264847,0.60832214,-0.2973938,1
620,9.433639999999999,0.49099729999999997,-0.32254028,1
621,9.444412,0.49339294,-0.36442566,1
622,9.327103,0.51374817,-0.31056213,1
623,9.21936,0.5783844,-0.22436523,1
624,9.136764999999999,0.6059265,-0.20881653,1
625,9.157119999999999,0.5664215,-0.15014648,1
626,9.307953,0.48143005,-0.24711609,1
627,9.284011999999999,0.45388794,-0.29020690000000005,1
628,9.210983,0.45748900000000003,-0.21000671,1
629,9.284011999999999,0.43713379999999996,-0.22317505,1
630,9.17746,0.47782898,-0.333313,1
631,9.185837,0.46705627,-0.29020690000000005,1
632,9.263657,0.48980713,-0.17887878,1
633,9.321121,0.54008484,-0.24113464,1
634,9.31633,0.5532531999999999,-0.3081665,1
635,9.275619500000001,0.62028503,-0.3584442,1
636,9.240905999999999,0.714859,-0.38238525,1
637,9.230133,0.6609955,-0.38957214,1
638,9.262466,0.6442260999999999,-0.46260070000000003,1
639,9.251678,0.6178894,-0.4673767,1
640,9.220566,0.69810486,-0.43147278,1
641,9.207397,0.66578674,-0.3548584,1
642,9.228943,0.61909485,-0.3153534,1
643,9.301956,0.5736084,-0.24113464,1
644,9.342667,0.5783844,-0.29859924,1
645,9.327103,0.56521606,-0.34048462,1
646,9.262466,0.5448761,-0.24951172,1
647,9.239716,0.55804443,-0.13937378,1
648,9.199005,0.5448761,-0.026855469,1
649,9.149933,0.5053711,-0.016082764,1
650,9.17627,0.5161438,-0.056777954000000005,1
651,9.21936,0.52093506,-0.044799805,1
652,9.166687,0.51374817,-0.06036377,1
653,9.268448,0.49220276,-0.044799805,1
654,9.254074000000001,0.5269165,-0.11064148,1
655,9.207397,0.55804443,-0.07473755,1
656,9.346252,0.5927581999999999,-0.109451294,1
657,9.264847,0.59155273,-0.30218506,1
658,9.23851,0.6250763,-0.13937378,1
659,9.163101,0.596344,0.021026611,1
660,9.014664,0.5664215,-0.09030151,1
661,9.136764999999999,0.53289795,-0.23036194,1
662,9.333084,0.49339294,-0.42549133,1
663,9.404907000000001,0.46945190000000003,-0.3081665,1
664,9.446808,0.47543335,-0.30218506,1
665,9.295975,0.45867920000000006,-0.36442566,1
666,9.195419000000001,0.40361023,-0.39675903,1
667,9.17627,0.38565063,-0.23634338,1
668,9.236130000000001,0.34376526,-0.14895629999999999,1
669,9.25647,0.33418274,-0.020858765,1
670,9.319916000000001,0.35453796,-0.0005187988,1
671,9.339081,0.38804626,-0.0041046143,1
672,9.305557,0.42156982,-0.01727295,1
673,9.323516999999999,0.43234253,-0.0914917,1
674,9.333084,0.48382568,-0.14537048,1
675,9.299576,0.5077667,-0.19204712,1
676,9.201400999999999,0.45748900000000003,-0.19923401,1
677,9.149933,0.41677856,-0.17170715,1
678,9.202606,0.3497467,-0.2973938,1
679,9.202606,0.31622314,-0.30937195,1
680,9.286407,0.34616090000000005,-0.30097959999999996,1
681,9.293579,0.36410522,-0.29859924,1
682,9.242111,0.38446045,-0.04121399,1
683,9.333084,0.38925170000000003,0.004272461,1
684,9.261261,0.4000244,-0.18606567,1
685,9.260071,0.41319275,-0.063964844,1
686,9.254074000000001,0.40242004,0.08807373,1
687,9.261261,0.4407196,0.117996216,1
688,9.239716,0.37368774,-0.008895874,1
689,9.243300999999999,0.41677856,-0.05558777,1
690,9.234924000000001,0.43473816,-0.037628174,1
691,9.232529,0.44311523,0.009063721,1
692,9.251678,0.46705627,-0.016082764,1
693,9.287598,0.5269165,-0.04840088,1
694,9.2708435,0.49220276,-0.0627594,1
695,9.292389,0.47782898,-0.08551025400000001,1
696,9.242111,0.45867920000000006,-0.14656067,1
697,9.261261,0.42277527,-0.10107422,1
698,9.244507,0.40361023,-0.063964844,1
699,9.242111,0.4191742,-0.07473755,1
700,9.269638,0.4084015,-0.0053100586,1
701,9.244507,0.378479,-0.01008606,1
702,9.251678,0.37487793,0.07130432,1
703,9.285202,0.35453796,0.08807373,1
704,9.2708435,0.34854126,0.09286499,1
705,9.278015,0.3102417,0.110809326,1
706,9.29718,0.29588318,0.12278747599999999,1
707,9.295975,0.34136963,0.09286499,1
708,9.258865,0.31143188,0.070114136,1
709,9.25528,0.30426025,0.16468811,1
710,9.327103,0.28630066,0.086868286,1
711,9.285202,0.24798584,-0.037628174,1
712,9.318726,0.259964,0.07130432,1
713,9.279221000000001,0.27792358,0.19821167,1
714,9.250488,0.24798584,0.19940186,1
715,9.216965,0.30426025,0.12397766,1
716,9.239716,0.3282013,0.06892395,1
717,9.269638,0.31622314,0.13237000000000002,1
718,9.228943,0.29588318,0.11201477,1
719,9.248092999999999,0.27552795,0.1539154,1
720,9.321121,0.31861877,0.16947937,1
721,9.306747,0.34735107,0.117996216,1
722,9.275619500000001,0.32939148,0.13237000000000002,1
723,9.234924000000001,0.378479,0.1539154,1
724,9.213379,0.37010193,0.16108704,1
725,9.230133,0.35932922,0.171875,1
726,9.251678,0.34616090000000005,0.14553833,1
727,9.262466,0.4299469,0.20419312,1
728,9.216965,0.41319275,0.2233429,1
729,9.266052,0.4072113,0.21496582,1
730,9.251678,0.37727356,0.20059204,1
731,9.305557,0.38206482,0.16947937,1
732,9.288788,0.34854126,0.18144226,1
733,9.278015,0.33299255,0.16348267,1
734,9.304352,0.36889648,0.12997437,1
735,9.232529,0.35812378,0.11680603,1
736,9.243300999999999,0.35693359999999996,0.14791870000000001,1
737,9.330688,0.38925170000000003,0.098846436,1
738,9.280411,0.3677063,-0.0005187988,1
739,9.274429,0.38087463,0.12278747599999999,1
740,9.262466,0.378479,0.18025208,1
741,9.230133,0.34376526,0.23171997,1
742,9.254074000000001,0.3677063,0.13237000000000002,1
743,9.245697,0.39523315,0.103637695,1
744,9.240905999999999,0.42396545,0.077301025,1
745,9.21936,0.417984,0.034194946000000004,1
746,9.222961,0.44192505,0.028213501000000002,1
747,9.242111,0.44911194,0.017440796,1
748,9.269638,0.44551086,0.03779602,1
749,9.25528,0.45509338,0.010253906,1
750,9.287598,0.43473816,0.091659546,1
751,9.285202,0.42156982,0.03779602,1
752,9.254074000000001,0.47903442,0.03060913,1
753,9.25528,0.3904419,0.027023315,1
754,9.260071,0.37249756,0.07250976599999999,1
755,9.242111,0.41079712,0.106033325,1
756,9.2313385,0.35333252,0.09764099,1
757,9.249298,0.3677063,0.096450806,1
758,9.273239,0.33418274,0.04498291,1
759,9.232529,0.35693359999999996,0.06652832,1
760,9.287598,0.4072113,0.05934143,1
761,9.294785000000001,0.37129209999999996,0.009063721,1
762,9.232529,0.37487793,-0.013687133999999998,1
763,9.282805999999999,0.35693359999999996,0.036590576,1
764,9.341461,0.36531067,-0.07473755,1
765,9.262466,0.3509369,-0.013687133999999998,1
766,9.2708435,0.38685608,0.086868286,1
767,9.257675,0.37249756,0.13954163,1
768,9.273239,0.3964386,0.120391846,1
769,9.261261,0.39762878,0.031814575,1
770,9.23851,0.39523315,0.05455017,1
771,9.245697,0.38446045,0.04258728,1
772,9.216965,0.36531067,0.053359985,1
773,9.254074000000001,0.41079712,0.1431427,1
774,9.292389,0.39404297,0.09764099,1
775,9.289992999999999,0.3677063,0.12518310000000002,1
776,9.282805999999999,0.36889648,0.06173706,1
777,9.242111,0.35333252,0.070114136,1
778,9.275619500000001,0.32939148,0.101242065,1
779,9.292389,0.32939148,0.08567810000000001,1
780,9.304352,0.33657837,0.06652832,1
781,9.246902,0.35453796,0.09526062,1
782,9.248092999999999,0.34376526,0.13356018,1
783,9.224152,0.33537292,0.07369995,1
784,9.293579,0.36889648,0.012649536000000001,1
785,9.327103,0.41079712,-0.0053100586,1
786,9.269638,0.37368774,0.10243225,1
787,9.263657,0.36889648,0.09286499,1
788,9.260071,0.31622314,0.074905396,1
789,9.25647,0.36650085,0.07130432,1
790,9.321121,0.4012146,0.04498291,1
791,9.269638,0.4084015,-0.05079651,1
792,9.264847,0.40600586,0.07609558,1
793,9.207397,0.45628357,0.21496582,1
794,9.242111,0.39164734,0.23770142,1
795,9.23732,0.39881897,0.2233429,1
796,9.224152,0.41319275,0.176651,1
797,9.273239,0.37368774,0.17546082,1
798,9.273239,0.35572815,0.120391846,1
799,9.301956,0.39523315,0.08807373,1
800,9.312744,0.36650085,0.05934143,1
801,9.351044,0.40242004,-0.022064208999999998,1
802,9.407303,0.41079712,-0.07713318,1
803,9.300766000000001,0.417984,-0.025650024,1
804,9.114014,0.41079712,0.031814575,1
805,9.188232000000001,0.3222046,0.09046936,1
806,9.343857,0.33657837,0.19940186,1
807,9.347458,0.34854126,0.28320313,1
808,9.258865,0.4287567,0.37657166,1
809,9.187042,0.39523315,0.43164063,1
810,9.110428,0.36291504,0.4388275,1
811,9.17627,0.33178709999999995,0.39453125,1
812,9.260071,0.35693359999999996,0.31552124,1
813,9.329498,0.37010193,0.33946228,1
814,9.325911999999999,0.34016418,0.31072998,1
815,9.25647,0.34854126,0.30116272,1
816,9.227737,0.37368774,0.3598175,1
817,9.273239,0.41319275,0.2808075,1
818,9.248092999999999,0.34735107,0.22692871,1
819,9.279221000000001,0.3677063,0.29397583,1
820,9.269638,0.34616090000000005,0.36221313,1
821,9.287598,0.36531067,0.43762207,1
822,9.262466,0.40361023,0.36819458,1
823,9.220566,0.39881897,0.3538208,1
824,9.197815,0.38206482,0.38494873,1
825,9.23732,0.37727356,0.36819458,1
826,9.239716,0.36170959999999996,0.39453125,1
827,9.295975,0.35453796,0.41249084,1
828,9.267242,0.34376526,0.42445374,1
829,9.289992999999999,0.30065918,0.41726685,1
830,9.246902,0.32939148,0.45439148,1
831,9.232529,0.34735107,0.41488647,1
832,9.249298,0.34016418,0.44480896,1
833,9.261261,0.33537292,0.4220581,1
834,9.257675,0.32939148,0.3885498,1
835,9.252884,0.35333252,0.39811707,1
836,9.242111,0.38087463,0.33827209999999996,1
837,9.245697,0.36650085,0.35861206,1
838,9.246902,0.33657837,0.35742188,1
839,9.268448,0.36051940000000005,0.42565918,1
840,9.31752,0.378479,0.3777771,1
841,9.287598,0.33299255,0.35263062,1
842,9.216965,0.33657837,0.35742188,1
843,9.232529,0.30784607,0.3885498,1
844,9.33548,0.38206482,0.40888977,1
845,9.260071,0.4012146,0.36340332,1
846,9.304352,0.37368774,0.45916748,1
847,9.276825,0.34735107,0.5669098000000001,1
848,9.245697,0.31143188,0.57528687,1
849,9.178664999999999,0.31861877,0.52500916,1
850,9.160706,0.33299255,0.52381897,1
851,9.179855,0.3138275,0.5226135000000001,1
852,9.2708435,0.2707367,0.48310852,1
853,9.321121,0.27911377,0.46395874,1
854,9.295975,0.30426025,0.48310852,1
855,9.299576,0.31503296,0.44480896,1
856,9.261261,0.31982422,0.40171814,1
857,9.245697,0.30903625,0.36819458,1
858,9.260071,0.30065918,0.3598175,1
859,9.233734,0.31982422,0.38494873,1
860,9.287598,0.31742859999999995,0.39093018,1
861,9.285202,0.2803192,0.36340332,1
862,9.292389,0.3222046,0.36579895,1
863,9.23732,0.33178709999999995,0.43643188,1
864,9.23732,0.35333252,0.48910522,1
865,9.244507,0.3677063,0.45439148,1
866,9.202606,0.37129209999999996,0.429245,1
867,9.195419000000001,0.39164734,0.44122314,1
868,9.25647,0.40242004,0.46635437,1
869,9.279221000000001,0.39523315,0.39453125,1
870,9.216965,0.39762878,0.40290833,1
871,9.275619500000001,0.36291504,0.45199585,1
872,9.279221000000001,0.37129209999999996,0.34425354,1
873,9.239716,0.4072113,0.36579895,1
874,9.249298,0.4084015,0.40769958,1
875,9.282805999999999,0.35572815,0.36221313,1
876,9.330688,0.28630066,0.31791687,1
877,9.311539,0.34376526,0.25086975,1
878,9.164291,0.4191742,0.22453308,1
879,9.181061,0.38206482,0.18504333,1
880,9.196625,0.39762878,0.19221497,1
881,9.2708435,0.3677063,0.2640381,1
882,9.3103485,0.30903625,0.22573853,1
883,9.300766000000001,0.32101440000000003,0.19102478,1
884,9.262466,0.28271484,0.1946106,1
885,9.248092999999999,0.28869629999999996,0.23292542,1
886,9.262466,0.29707336,0.25086975,1
887,9.228943,0.31503296,0.350235,1
888,9.224152,0.28509520000000005,0.33946228,1
889,9.257675,0.34016418,0.26643372,1
890,9.240905999999999,0.33299255,0.2341156,1
891,9.263657,0.28749084,0.20898438,1
892,9.280411,0.30784607,0.26763916,1
893,9.319916000000001,0.2803192,0.24848938,1
894,9.33429,0.33418274,0.21736145,1
895,9.31633,0.33178709999999995,0.20179749,1
896,9.328292999999999,0.38206482,0.21257019,1
897,9.242111,0.39164734,0.15750122,1
898,9.257675,0.39283752,0.17306519,1
899,9.351044,0.33178709999999995,0.106033325,1
900,9.300766000000001,0.29467773,0.055755615,1
901,9.246902,0.2803192,0.13476563,1
902,9.261261,0.2348175,0.23052979,1
903,9.201400999999999,0.21208191,0.2915802,1
904,9.252884,0.19770813,0.26882935,1
905,9.261261,0.21087646,0.17785645,1
906,9.287598,0.2192688,0.22813416,1
907,9.278015,0.25637817,0.25926208,1
908,9.280411,0.30545044,0.30116272,1
909,9.288788,0.3222046,0.28678894,1
910,9.367797999999999,0.37368774,0.2736206,1
911,9.3103485,0.42156982,0.19940186,1
912,9.278015,0.39881897,0.16827393,1
913,9.21936,0.35812378,0.18981934,1
914,9.232529,0.30186462,0.21975708,1
915,9.242111,0.28509520000000005,0.22813416,1
916,9.239716,0.27911377,0.23052979,1
917,9.266052,0.27552795,0.23651123,1
918,9.25528,0.30186462,0.23171997,1
919,9.307953,0.33299255,0.27122498,1
920,9.299576,0.37129209999999996,0.2628479,1
921,9.287598,0.34735107,0.30833435,1
922,9.257675,0.36170959999999996,0.31193542,1
923,9.230133,0.35932922,0.30474854,1
924,9.239716,0.33776855,0.25805664,1
925,9.213379,0.34854126,0.22215271,1
926,9.214569000000001,0.35333252,0.23532104,1
927,9.373795,0.34495544,0.19940186,1
928,9.31752,0.37010193,0.103637695,1
929,9.269638,0.35453796,0.27243042,1
930,9.25647,0.32939148,0.32510376,1
931,9.278015,0.32341003,0.37417603,1
932,9.242111,0.34735107,0.28678894,1
933,9.210983,0.36291504,0.23532104,1
934,9.243300999999999,0.35453796,0.216156,1
935,9.227737,0.3282013,0.23292542,1
936,9.262466,0.31503296,0.25326538,1
937,9.275619500000001,0.27911377,0.2987671,1
938,9.307953,0.28509520000000005,0.27122498,1
939,9.274429,0.27671814,0.26165770000000005,1
940,9.262466,0.28271484,0.2341156,1
941,9.305557,0.26834106,0.27841187,1
942,9.305557,0.24320984,0.24609375,1
943,9.262466,0.2240448,0.26045227,1
944,9.274429,0.22644043,0.27841187,1
945,9.266052,0.21687317,0.29037476,1
946,9.279221000000001,0.23602295,0.30714417,1
947,9.25528,0.30545044,0.30593872,1
948,9.260071,0.32580566,0.33827209999999996,1
949,9.282805999999999,0.32101440000000003,0.31193542,1
950,9.300766000000001,0.31861877,0.3131256,1
951,9.252884,0.33776855,0.29756165,1
952,9.234924000000001,0.30665588,0.31791687,1
953,9.284011999999999,0.3282013,0.32389832,1
954,9.282805999999999,0.31982422,0.2808075,1
955,9.21936,0.30665588,0.30354309999999995,1
956,9.303162,0.28988647,0.33348083,1
957,9.29837,0.33776855,0.20059204,1
958,9.2313385,0.32460022,0.21736145,1
959,9.25647,0.29707336,0.29995728,1
960,9.266052,0.26834106,0.37538147,1
961,9.233734,0.3509369,0.3538208,1
962,9.232529,0.39164734,0.32868958,1
963,9.234924000000001,0.36051940000000005,0.28799438,1
964,9.221756,0.34136963,0.29756165,1
965,9.240905999999999,0.32101440000000003,0.28559875,1
966,9.272034,0.32341003,0.31193542,1
967,9.306747,0.32699585,0.3131256,1
968,9.295975,0.36889648,0.31552124,1
969,9.248092999999999,0.34016418,0.3095398,1
970,9.246902,0.30186462,0.29995728,1
971,9.267242,0.30186462,0.32270813,1
972,9.252884,0.2815094,0.28559875,1
973,9.263657,0.31742859999999995,0.27841187,1
974,9.272034,0.31861877,0.29037476,1
975,9.251678,0.28509520000000005,0.2987671,1
976,9.250488,0.31861877,0.34065247,1
977,9.230133,0.31982422,0.41726685,1
978,9.246902,0.34854126,0.41009520000000005,1
979,9.286407,0.32341003,0.31791687,1
980,9.336685000000001,0.32699585,0.3095398,1
981,9.294785000000001,0.27911377,0.27720642,1
982,9.272034,0.30426025,0.3418579,1
983,9.228943,0.31143188,0.33706665,1
984,9.230133,0.33418274,0.44720459999999995,1
985,9.329498,0.31742859999999995,0.3825531,1
986,9.3103485,0.3138275,0.30235290000000004,1
987,9.220566,0.30305479999999996,0.28799438,1
988,9.303162,0.28749084,0.21257019,1
989,9.275619500000001,0.32580566,0.13356018,1
990,9.224152,0.36291504,0.14791870000000001,1
991,9.242111,0.30305479999999996,0.25086975,1
992,9.264847,0.3222046,0.32270813,1
993,9.196625,0.34255979999999997,0.30235290000000004,1
994,9.127182000000001,0.30065918,0.24009705,1
995,9.108032000000001,0.30426025,0.20059204,1
996,9.14035,0.2635498,0.18383789,1
997,9.164291,0.27671814,0.13237000000000002,1
998,9.371399,0.31622314,0.031814575,1
999,9.594055,0.32580566,-0.06515503,1
1000,9.51265,0.36531067,-0.29141235,1
1001,9.31633,0.34735107,-0.26148987,1
1002,9.239716,0.299469,-0.05558777,1
1003,9.151123,0.28390503,0.096450806,1
1004,9.190628,0.26834106,0.12278747599999999,1
1005,9.236130000000001,0.31503296,0.04258728,1
1006,9.318726,0.3138275,-0.0627594,1
1007,9.312744,0.34136963,-0.07952881,1
1008,9.304352,0.35812378,0.034194946000000004,1
1009,9.31633,0.36051940000000005,0.06413269,1
1010,9.243300999999999,0.33776855,0.13237000000000002,1
1011,9.275619500000001,0.3138275,0.17425537,1
1012,9.327103,0.24081421,0.16947937,1
1013,9.29718,0.26715088,0.17066956,1
1014,9.25647,0.24559021,0.13835144,1
1015,9.279221000000001,0.27313232,0.19700623,1
1016,9.254074000000001,0.29467773,0.26882935,1
1017,9.228943,0.30545044,0.26763916,1
1018,9.165497,0.27792358,0.29756165,1
1019,9.268448,0.24440002,0.16229248,1
1020,9.282805999999999,0.2348175,0.07849121,1
1021,9.252884,0.22285461,0.17066956,1
1022,9.272034,0.23960876,0.32270813,1
1023,9.306747,0.25038147,0.40530396,1
1024,9.325911999999999,0.28509520000000005,0.31671143,1
1025,9.213379,0.20489502,0.3131256,1
1026,9.200211,0.16778564,0.43643188,1
1027,9.228943,0.11392212,0.47473145,1
1028,9.282805999999999,0.13546753,0.44960022,1
1029,9.284011999999999,0.14863586,0.42565918,1
1030,9.248092999999999,0.299469,0.27601624,1
1031,9.206192,0.5017699999999999,0.171875,1
1032,9.155914,0.68852234,0.0054779053000000005,1
1033,9.214569000000001,0.6968994000000001,-0.16571045,1
1034,9.360626,0.5460663,-0.06994629,1
1035,9.347458,0.41198729999999995,0.036590576,1
1036,9.324707,0.27671814,0.19342041,1
1037,9.25647,0.20489502,0.21975708,1
1038,9.226547,0.1618042,0.30714417,1
1039,9.257675,0.22525024,0.29397583,1
1040,9.289992999999999,0.25637817,0.22573853,1
1041,9.291183,0.2240448,0.21496582,1
1042,9.361816000000001,0.20249939,0.26643372,1
1043,9.427658000000001,0.2240448,0.5166321,1
1044,9.260071,0.35333252,0.61120605,1
1045,8.996704,0.5245209,0.21017456,1
1046,9.035003999999999,0.53170776,-0.28422546,1
1047,9.129578,0.51016235,-0.37521362,1
1048,9.29718,0.40481567,-0.014877318999999998,1
1049,9.39534,0.417984,0.42326355,1
1050,9.21936,0.44671629999999996,0.33706665,1
1051,9.171478,0.29348755,0.37657166,1
1052,9.226547,0.22045898,0.44241333,1
1053,9.214569000000001,0.12948608,0.47593690000000005,1
1054,9.410903999999999,-0.06324768,0.63035583,1
1055,9.544967999999999,-0.2212677,0.5848694000000001,1
1056,9.407303,-0.27035522,0.5549469,1
1057,9.207397,-0.25120544,0.5549469,1
1058,9.179855,-0.21170044,0.6159973000000001,1
1059,9.172684,-0.22007751,0.5884552,1
1060,9.202606,-0.21170044,0.65908813,1
1061,9.212173,-0.19374084,0.75006104,1
1062,9.200211,-0.10635376,0.7428894,1
1063,9.171478,-0.05368042,0.6854248000000001,1
1064,9.262466,0.091171265,0.55255127,1
1065,9.364212,0.12348938,0.42086792,1
1066,9.386963,0.1797638,0.21376038,1
1067,9.390549,0.17497253,0.14791870000000001,1
1068,9.342667,0.21087646,0.21975708,1
1069,9.287598,0.13665771,0.24009705,1
1070,9.215775,0.12828064,0.38015747,1
1071,9.148727000000001,0.14503479,0.5154419,1
1072,9.209793,0.25398254,0.57289124,1
1073,9.280411,0.31503296,0.5764923000000001,1
1074,9.197815,0.31982422,0.6088104,1
1075,9.153519000000001,0.28509520000000005,0.73809814,1
1076,9.072113,0.25875854,0.76802063,1
1077,9.159514999999999,0.22285461,0.6854248000000001,1
1078,9.266052,0.17497253,0.50346375,1
1079,9.386963,0.09236145,0.34783936,1
1080,9.459976,0.050476074,0.16827393,1
1081,9.361816000000001,0.0756073,0.15870667,1
1082,9.313934,0.100753784,0.2233429,1
1083,9.318726,0.07081604,0.2640381,1
1084,9.293579,0.014556885,0.3143158,1
1085,9.293579,-0.009384155,0.26643372,1
1086,9.240905999999999,0.0013885498,0.23292542,1
1087,9.214569000000001,0.10433959999999999,0.20419312,1
1088,9.284011999999999,0.13786316,0.21257019,1
1089,9.278015,0.17137146,0.2233429,1
1090,9.276825,0.20848083,0.25086975,1
1091,9.272034,0.21208191,0.31193542,1
1092,9.311539,0.23123169,0.29516602,1
1093,9.275619500000001,0.24679565,0.29397583,1
1094,9.2708435,0.17497253,0.30235290000000004,1
1095,9.275619500000001,0.17736816,0.35621643,1
1096,9.285202,0.112716675,0.39692688,1
1097,9.232529,0.08998108,0.39811707,1
1098,9.243300999999999,0.10314941400000001,0.3705902,1
1099,9.250488,0.03491211,0.350235,1
1100,9.281616,0.05166626,0.350235,1
1101,9.249298,0.03730774,0.32987976,1
1102,9.260071,0.02053833,0.27601624,1
1103,9.29837,0.03970337,0.27601624,1
1104,9.321121,0.040893555,0.1874237,1
1105,9.29718,0.026535034,0.23890686,1
1106,9.328292999999999,0.04447937,0.27122498,1
1107,9.273239,0.08998108,0.24488829999999998,1
1108,9.199005,0.12348938,0.3143158,1
1109,9.309142999999999,0.122299194,0.30593872,1
1110,9.325911999999999,0.16659546,0.15989685,1
1111,9.252884,0.1510315,0.19221497,1
1112,9.293579,0.19293213,0.27482605,1
1113,9.295975,0.14263916,0.3095398,1
1114,9.261261,0.18214417,0.34065247,1
1115,9.220566,0.19891357,0.33348083,1
1116,9.227737,0.17137146,0.28918457,1
1117,9.274429,0.16299438,0.31671143,1
1118,9.299576,0.1953125,0.30593872,1
1119,9.31752,0.14863586,0.29756165,1
1120,9.287598,0.13905334,0.35263062,1
1121,9.258865,0.14144897,0.2808075,1
1122,9.289992999999999,0.11631775,0.25326538,1
1123,9.264847,0.13546753,0.26524353,1
1124,9.267242,0.11631775,0.22692871,1
1125,9.268448,0.12469482400000001,0.30714417,1
1126,9.281616,0.12828064,0.26643372,1
1127,9.278015,0.117507935,0.33946228,1
1128,9.281616,0.12709045,0.31791687,1
1129,9.252884,0.117507935,0.31671143,1
1130,9.279221000000001,0.112716675,0.29277040000000004,1
1131,9.311539,0.18214417,0.33946228,1
1132,9.322311000000001,0.13426208,0.31552124,1
1133,9.246902,0.16419983,0.27960205,1
1134,9.250488,0.14263916,0.3203125,1
1135,9.281616,0.14384460000000002,0.31671143,1
1136,9.263657,0.16778564,0.30474854,1
1137,9.193024000000001,0.16299438,0.34664917,1
1138,9.343857,0.16419983,0.3131256,1
1139,9.357025,0.15820313,0.21736145,1
1140,9.288788,0.107925415,0.23651123,1
1141,9.250488,0.15940857,0.39453125,1
1142,9.258865,0.14863586,0.39572144,1
1143,9.228943,0.16059875,0.40171814,1
1144,9.221756,0.14982605,0.35144043,1
1145,9.240905999999999,0.115112305,0.35742188,1
1146,9.240905999999999,0.14025879,0.35144043,1
1147,9.286407,0.12109375,0.32150270000000003,1
1148,9.285202,0.12348938,0.26524353,1
1149,9.324707,0.15342712,0.176651,1
1150,9.31752,0.13905334,0.13954163,1
1151,9.31752,0.14503479,0.1826477,1
1152,9.304352,0.17497253,0.25805664,1
1153,9.279221000000001,0.18814087,0.33946228,1
1154,9.195419000000001,0.18095398,0.37538147,1
1155,9.203796,0.20130920000000002,0.34544373,1
1156,9.202606,0.19770813,0.2915802,1
1157,9.232529,0.25038147,0.2915802,1
1158,9.285202,0.22883606,0.22692871,1
1159,9.285202,0.2192688,0.28678894,1
1160,9.312744,0.20610046,0.29397583,1
1161,9.340271000000001,0.16659546,0.3143158,1
1162,9.289992999999999,0.20848083,0.35742188,1
1163,9.25647,0.23242188,0.3777771,1
1164,9.267242,0.21087646,0.4005127,1
1165,9.243300999999999,0.1725769,0.3538208,1
1166,9.147537,0.15342712,0.39093018,1
1167,9.324707,0.14384460000000002,0.35144043,1
1168,9.361816000000001,0.14503479,0.15750122,1
1169,9.329498,0.107925415,0.25926208,1
1170,9.278015,0.12948608,0.41368103,1
1171,9.264847,0.16539001,0.5058594,1
1172,9.25647,0.1618042,0.48550415,1
1173,9.227737,0.15342712,0.40530396,1
1174,9.242111,0.17497253,0.42445374,1
1175,9.221756,0.13905334,0.39572144,1
1176,9.23851,0.19412231,0.37657166,1
1177,9.252884,0.19651794,0.3598175,1
1178,9.278015,0.21687317,0.33348083,1
1179,9.31633,0.1905365,0.31791687,1
1180,9.284011999999999,0.19412231,0.28918457,1
1181,9.240905999999999,0.23362732,0.30593872,1
1182,9.243300999999999,0.2300415,0.38136292,1
1183,9.243300999999999,0.20729065,0.37417603,1
1184,9.250488,0.21087646,0.30714417,1
1185,9.262466,0.24200439999999998,0.34544373,1
1186,9.243300999999999,0.25277710000000003,0.37417603,1
1187,9.239716,0.23242188,0.38136292,1
1188,9.25528,0.23960876,0.39453125,1
1189,9.260071,0.21447754,0.38015747,1
1190,9.269638,0.21687317,0.42326355,1
1191,9.291183,0.18693542,0.37896729999999995,1
1192,9.239716,0.21687317,0.4112854,1
1193,9.250488,0.23960876,0.40888977,1
1194,9.304352,0.1845398,0.32389832,1
1195,9.244507,0.16778564,0.36819458,1
1196,9.244507,0.20010376,0.429245,1
1197,9.372589,0.1725769,0.4112854,1
1198,9.313934,0.18095398,0.25926208,1
1199,9.267242,0.1953125,0.30354309999999995,1
1200,9.243300999999999,0.20729065,0.44599915,1
1201,9.251678,0.19412231,0.49627686,1
1202,9.234924000000001,0.21087646,0.43762207,1
1203,9.220566,0.24440002,0.39453125,1
1204,9.246902,0.22644043,0.42684937,1
1205,9.262466,0.2192688,0.38494873,1
1206,9.239716,0.23242188,0.37896729999999995,1
1207,9.285202,0.20370483,0.41009520000000005,1
1208,9.322311000000001,0.19172668,0.45199585,1
1209,9.282805999999999,0.2192688,0.34783936,1
1210,9.254074000000001,0.21208191,0.39811707,1
1211,9.220566,0.19770813,0.43762207,1
1212,9.23851,0.18574524,0.44599915,1
1213,9.263657,0.1618042,0.44960022,1
1214,9.2708435,0.21087646,0.46395874,1
1215,9.249298,0.20010376,0.46754456,1
1216,9.25528,0.22164917,0.41726685,1
1217,9.25528,0.19172668,0.45079040000000004,1
1218,9.243300999999999,0.24919128,0.41488647,1
1219,9.261261,0.19891357,0.47354126,1
1220,9.260071,0.20729065,0.45797730000000003,1
1221,9.289992999999999,0.20130920000000002,0.40888977,1
1222,9.278015,0.19651794,0.40290833,1
1223,9.2313385,0.2240448,0.41607666,1
1224,9.264847,0.18574524,0.46994020000000003,1
1225,9.289992999999999,0.20370483,0.4220581,1
1226,9.224152,0.19891357,0.36819458,1
1227,9.254074000000001,0.20489502,0.4807129,1
1228,9.355835,0.19293213,0.38136292,1
1229,9.291183,0.18214417,0.31671143,1
1230,9.222961,0.21208191,0.41009520000000005,1
1231,9.243300999999999,0.20729065,0.5166321,1
1232,9.264847,0.22164917,0.53578186,1
1233,9.264847,0.20968628,0.47712708,1
1234,9.262466,0.25277710000000003,0.36100770000000004,1
1235,9.274429,0.25875854,0.39692688,1
1236,9.225342,0.24200439999999998,0.4328308,1
1237,9.244507,0.18814087,0.44839478,1
1238,9.272034,0.2132721,0.47233582,1
1239,9.279221000000001,0.23602295,0.46875,1
1240,9.286407,0.2240448,0.39572144,1
1241,9.234924000000001,0.20968628,0.4220581,1
1242,9.25528,0.21687317,0.42445374,1
1243,9.263657,0.1953125,0.44001769999999996,1
1244,9.280411,0.23721313,0.4112854,1
1245,9.269638,0.21447754,0.45677185,1
1246,9.249298,0.20370483,0.44599915,1
1247,9.23851,0.2348175,0.50346375,1
1248,9.232529,0.18693542,0.48191833,1
1249,9.273239,0.2192688,0.50346375,1
1250,9.225342,0.22045898,0.50346375,1
1251,9.268448,0.20249939,0.47473145,1
1252,9.285202,0.17855835,0.41368103,1
1253,9.267242,0.16659546,0.429245,1
1254,9.215775,0.18214417,0.44599915,1
1255,9.245697,0.21687317,0.50227356,1
1256,9.264847,0.20249939,0.41607666,1
1257,9.2313385,0.17616272,0.41966248,1
1258,9.227737,0.21447754,0.42684937,1
1259,9.355835,0.1953125,0.32748413,1
1260,9.284011999999999,0.18574524,0.27841187,1
1261,9.287598,0.22045898,0.41966248,1
1262,9.272034,0.25277710000000003,0.46516418,1
1263,9.243300999999999,0.24320984,0.48789978,1
1264,9.210983,0.22764587,0.37417603,1
1265,9.17627,0.24081421,0.35742188,1
1266,9.209793,0.19412231,0.3825531,1
1267,9.272034,0.21208191,0.37417603,1
1268,9.294785000000001,0.17137146,0.35861206,1
1269,9.301956,0.1797638,0.44960022,1
1270,9.303162,0.1797638,0.350235,1
1271,9.286407,0.19891357,0.30474854,1
1272,9.227737,0.16539001,0.2987671,1
1273,9.258865,0.1905365,0.27841187,1
1274,9.226547,0.19412231,0.29277040000000004,1
1275,9.249298,0.1845398,0.32748413,1
1276,9.25647,0.19770813,0.2987671,1
1277,9.261261,0.21806335,0.31910706,1
1278,9.257675,0.19412231,0.34664917,1
1279,9.260071,0.22045898,0.3777771,1
1280,9.257675,0.24200439999999998,0.3777771,1
1281,9.269638,0.24440002,0.39453125,1
1282,9.286407,0.26235962,0.35621643,1
1283,9.285202,0.299469,0.38015747,1
1284,9.230133,0.28271484,0.33827209999999996,1
1285,9.234924000000001,0.259964,0.36221313,1
1286,9.29718,0.24200439999999998,0.29637146,1
1287,9.214569000000001,0.21447754,0.35742188,1
1288,9.29718,0.22525024,0.37298584,1
1289,9.3701935,0.17616272,0.3095398,1
1290,9.295975,0.18814087,0.2736206,1
1291,9.261261,0.18693542,0.34664917,1
1292,9.196625,0.2192688,0.46754456,1
1293,9.2313385,0.25756836,0.52142334,1
1294,9.2313385,0.23362732,0.44839478,1
1295,9.232529,0.2240448,0.4040985,1
1296,9.240905999999999,0.2240448,0.34425354,1
1297,9.295975,0.25517273,0.29277040000000004,1
1298,9.3103485,0.2348175,0.32510376,1
1299,9.299576,0.23362732,0.3885498,1
1300,9.31752,0.21087646,0.42326355,1
1301,9.278015,0.24798584,0.39453125,1
1302,9.23851,0.25277710000000003,0.37657166,1
1303,9.239716,0.23841858,0.42684937,1
1304,9.230133,0.22285461,0.41249084,1
1305,9.260071,0.26235962,0.42086792,1
1306,9.281616,0.26594543,0.3777771,1
1307,9.276825,0.22045898,0.44001769999999996,1
1308,9.248092999999999,0.22285461,0.46395874,1
1309,9.263657,0.22644043,0.49748230000000004,1
1310,9.278015,0.2707367,0.49627686,1
1311,9.264847,0.22644043,0.46754456,1
1312,9.2708435,0.24200439999999998,0.41726685,1
1313,9.250488,0.19412231,0.46276855,1
1314,9.248092999999999,0.21087646,0.4328308,1
1315,9.239716,0.23721313,0.41368103,1
1316,9.284011999999999,0.20010376,0.3825531,1
1317,9.232529,0.20249939,0.35742188,1
1318,9.252884,0.2348175,0.36460876,1
1319,9.403717,0.21447754,0.26524353,1
1320,9.31633,0.20729065,0.23770142,1
1321,9.280411,0.23362732,0.39093018,1
1322,9.252884,0.20968628,0.49029540000000005,1
1323,9.188232000000001,0.22883606,0.47593690000000005,1
1324,9.227737,0.27792358,0.41368103,1
1325,9.226547,0.2922821,0.40530396,1
1326,9.232529,0.26235962,0.42326355,1
1327,9.246902,0.26235962,0.4220581,1
1328,9.248092999999999,0.27792358,0.43164063,1
1329,9.269638,0.24798584,0.44001769999999996,1
1330,9.313934,0.26475525,0.4112854,1
1331,9.29718,0.24320984,0.41249084,1
1332,9.254074000000001,0.27432249999999997,0.39932249999999997,1
1333,9.252884,0.259964,0.4220581,1
1334,9.250488,0.22525024,0.44480896,1
1335,9.261261,0.20848083,0.40290833,1
1336,9.266052,0.21087646,0.4328308,1
1337,9.236130000000001,0.24559021,0.41488647,1
1338,9.267242,0.20610046,0.41726685,1
1339,9.276825,0.19651794,0.41966248,1
1340,9.279221000000001,0.20370483,0.43522644,1
1341,9.273239,0.24440002,0.4220581,1
1342,9.266052,0.23841858,0.46276855,1
1343,9.260071,0.20370483,0.45079040000000004,1
1344,9.230133,0.20968628,0.45558167,1
1345,9.226547,0.20968628,0.47712708,1
1346,9.287598,0.19891357,0.49627686,1
1347,9.250488,0.23721313,0.44480896,1
1348,9.215775,0.23602295,0.48789978,1
1349,9.367797999999999,0.2348175,0.4328308,1
1350,9.3103485,0.19293213,0.30235290000000004,1
1351,9.285202,0.24320984,0.39692688,1
1352,9.23851,0.21087646,0.53100586,1
1353,9.246902,0.23841858,0.57289124,1
1354,9.227737,0.23362732,0.48789978,1
1355,9.183456,0.2300415,0.44839478,1
1356,9.222961,0.2240448,0.46395874,1
1357,9.222961,0.24320984,0.47473145,1
1358,9.291183,0.21208191,0.46754456,1
1359,9.262466,0.18693542,0.47712708,1
1360,9.268448,0.2192688,0.49627686,1
1361,9.272034,0.23123169,0.47114563,1
1362,9.240905999999999,0.2300415,0.45199585,1
1363,9.2313385,0.22164917,0.45199585,1
1364,9.239716,0.22285461,0.49269104,1
1365,9.269638,0.20370483,0.47712708,1
1366,9.280411,0.20370483,0.47354126,1
1367,9.257675,0.21566772,0.46754456,1
1368,9.286407,0.17018127,0.49627686,1
1369,9.266052,0.2300415,0.48550415,1
1370,9.254074000000001,0.2300415,0.50704956,1
1371,9.254074000000001,0.19891357,0.5058594,1
1372,9.242111,0.22644043,0.51304626,1
1373,9.244507,0.24320984,0.48910522,1
1374,9.234924000000001,0.23362732,0.47833252,1
1375,9.243300999999999,0.2300415,0.54296875,1
1376,9.285202,0.21447754,0.54177856,1
1377,9.29718,0.23602295,0.48910522,1
1378,9.202606,0.27192688,0.47233582,1
1379,9.267242,0.26115417,0.54655457,1
1380,9.31752,0.24559021,0.40530396,1
1381,9.269638,0.2240448,0.34425354,1
1382,9.269638,0.24200439999999998,0.4328308,1
1383,9.267242,0.24081421,0.5286102,1
1384,9.269638,0.25398254,0.4986725,1
1385,9.257675,0.25277710000000003,0.44122314,1
1386,9.227737,0.28988647,0.43164063,1
1387,9.23732,0.26475525,0.4807129,1
1388,9.230133,0.27911377,0.48550415,1
1389,9.260071,0.25398254,0.49388123,1
1390,9.267242,0.25756836,0.52142334,1
1391,9.287598,0.23721313,0.5118408,1
1392,9.268448,0.20729065,0.5489501999999999,1
1393,9.228943,0.20370483,0.49987793,1
1394,9.250488,0.2132721,0.5453644,1
1395,9.257675,0.19412231,0.5669098000000001,1
1396,9.25528,0.24081421,0.57170105,1
1397,9.300766000000001,0.22045898,0.50227356,1
1398,9.260071,0.20370483,0.46037292,1
1399,9.286407,0.23123169,0.43762207,1
1400,9.25528,0.2240448,0.47712708,1
1401,9.272034,0.23602295,0.49029540000000005,1
1402,9.226547,0.25875854,0.49150085,1
1403,9.243300999999999,0.25038147,0.46037292,1
1404,9.278015,0.2348175,0.44122314,1
1405,9.269638,0.24919128,0.40290833,1
1406,9.233734,0.2635498,0.44599915,1
1407,9.292389,0.25398254,0.46994020000000003,1
1408,9.261261,0.24440002,0.38015747,1
1409,9.17746,0.25277710000000003,0.40888977,1
1410,9.278015,0.2635498,0.46395874,1
1411,9.342667,0.22883606,0.38734436,1
1412,9.25528,0.25637817,0.32987976,1
1413,9.23851,0.25875854,0.46276855,1
1414,9.268448,0.24320984,0.47833252,1
1415,9.280411,0.25398254,0.43762207,1
1416,9.228943,0.2192688,0.3538208,1
1417,9.225342,0.2240448,0.32987976,1
1418,9.222961,0.18574524,0.3717804,1
1419,9.275619500000001,0.24440002,0.39572144,1
1420,9.293579,0.25875854,0.3933258,1
1421,9.333084,0.21806335,0.4220581,1
1422,9.305557,0.19412231,0.40530396,1
1423,9.284011999999999,0.22285461,0.39572144,1
1424,9.2708435,0.23721313,0.38974000000000003,1
1425,9.248092999999999,0.22045898,0.46276855,1
1426,9.243300999999999,0.22644043,0.46635437,1
1427,9.248092999999999,0.26235962,0.508255,1
1428,9.243300999999999,0.27911377,0.47473145,1
1429,9.234924000000001,0.25637817,0.5453644,1
1430,9.230133,0.24200439999999998,0.5657196,1
1431,9.228943,0.24919128,0.5776825,1
1432,9.275619500000001,0.27792358,0.5262146,1
1433,9.25528,0.24440002,0.55374146,1
1434,9.246902,0.23841858,0.50346375,1
1435,9.278015,0.23841858,0.46037292,1
1436,9.249298,0.24081421,0.43043518,1
1437,9.2708435,0.23242188,0.46516418,1
1438,9.31633,0.22525024,0.40888977,1
1439,9.242111,0.24679565,0.44839478,1
1440,9.232529,0.23362732,0.51065063,1
1441,9.348647999999999,0.25277710000000003,0.47952269999999997,1
1442,9.282805999999999,0.21087646,0.3598175,1
1443,9.260071,0.26715088,0.40649414,1
1444,9.254074000000001,0.25875854,0.48550415,1
1445,9.221756,0.26235962,0.54776,1
1446,9.233734,0.26594543,0.5178375,1
1447,9.226547,0.2803192,0.46037292,1
1448,9.213379,0.28390503,0.5118408,1
1449,9.232529,0.2707367,0.49508667,1
1450,9.262466,0.27792358,0.47593690000000005,1
1451,9.282805999999999,0.24798584,0.5202179,1
1452,9.276825,0.23721313,0.51065063,1
1453,9.251678,0.23362732,0.46037292,1
1454,9.258865,0.23721313,0.48431396,1
1455,9.272034,0.2240448,0.48310852,1
1456,9.258865,0.22285461,0.48789978,1
1457,9.244507,0.20848083,0.508255,1
1458,9.249298,0.23123169,0.48789978,1
1459,9.274429,0.23721313,0.46156309999999995,1
1460,9.25647,0.21447754,0.47833252,1
1461,9.268448,0.22285461,0.50346375,1
1462,9.263657,0.25756836,0.47473145,1
1463,9.292389,0.2300415,0.45558167,1
1464,9.29837,0.23242188,0.42565918,1
1465,9.248092999999999,0.22883606,0.45199585,1
1466,9.2708435,0.20370483,0.45916748,1
1467,9.23851,0.1905365,0.44599915,1
1468,9.246902,0.22764587,0.47354126,1
1469,9.287598,0.24440002,0.5010680999999999,1
1470,9.306747,0.23602295,0.44839478,1
1471,9.222961,0.23721313,0.47833252,1
1472,9.240905999999999,0.25637817,0.5956421,1
1473,9.31633,0.26834106,0.47354126,1
1474,9.260071,0.27192688,0.35742188,1
1475,9.246902,0.2300415,0.49388123,1
1476,9.279221000000001,0.24200439999999998,0.6267699999999999,1
1477,9.233734,0.24320984,0.6267699999999999,1
1478,9.221756,0.23841858,0.5489501999999999,1
1479,9.202606,0.26594543,0.50346375,1
1480,9.226547,0.24919128,0.49987793,1
1481,9.215775,0.2815094,0.49508667,1
1482,9.25528,0.27313232,0.46994020000000003,1
1483,9.269638,0.2635498,0.47114563,1
1484,9.306747,0.2300415,0.5274048000000001,1
1485,9.268448,0.22525024,0.48310852,1
1486,9.250488,0.24081421,0.48191833,1
1487,9.245697,0.2192688,0.5453644,1
1488,9.250488,0.20370483,0.5693054,1
1489,9.263657,0.20968628,0.5369873000000001,1
1490,9.281616,0.20968628,0.55374146,1
1491,9.266052,0.21447754,0.57170105,1
1492,9.25528,0.2300415,0.5202179,1
1493,9.278015,0.25277710000000003,0.5441741999999999,1
1494,9.287598,0.21087646,0.5513458000000001,1
1495,9.23851,0.23362732,0.5369873000000001,1
1496,9.279221000000001,0.23362732,0.53338623,1
1497,9.266052,0.2635498,0.52381897,1
1498,9.272034,0.22164917,0.47233582,1
1499,9.246902,0.21566772,0.49029540000000005,1
1500,9.252884,0.2348175,0.54776,1
1501,9.23732,0.2695465,0.57888794,1
1502,9.293579,0.23123169,0.5381775,1
1503,9.232529,0.23960876,0.47593690000000005,1
1504,9.214569000000001,0.27313232,0.5848694000000001,1
1505,9.328292999999999,0.23123169,0.53219604,1
1506,9.274429,0.24320984,0.40649414,1
1507,9.251678,0.24679565,0.50346375,1
1508,9.250488,0.2192688,0.5980376999999999,1
1509,9.232529,0.23721313,0.5956421,1
1510,9.250488,0.24200439999999998,0.5345916999999999,1
1511,9.25647,0.26235962,0.53338623,1
1512,9.232529,0.26834106,0.5262146,1
1513,9.244507,0.25756836,0.5298004,1
1514,9.234924000000001,0.24798584,0.5441741999999999,1
1515,9.257675,0.24320984,0.5764923000000001,1
1516,9.304352,0.23362732,0.58247375,1
1517,9.29837,0.22644043,0.48431396,1
1518,9.272034,0.25637817,0.47233582,1
1519,9.251678,0.21208191,0.53219604,1
1520,9.236130000000001,0.25038147,0.5489501999999999,1
1521,9.264847,0.2132721,0.56451416,1
1522,9.250488,0.24320984,0.5369873000000001,1
1523,9.269638,0.24440002,0.48910522,1
1524,9.280411,0.24320984,0.508255,1
1525,9.25528,0.24320984,0.53338623,1
1526,9.251678,0.2635498,0.57888794,1
1527,9.266052,0.26834106,0.5657196,1
1528,9.225342,0.22883606,0.50227356,1
1529,9.236130000000001,0.24440002,0.50346375,1
1530,9.278015,0.22525024,0.52142334,1
1531,9.254074000000001,0.23362732,0.48431396,1
1532,9.258865,0.23602295,0.52142334,1
1533,9.261261,0.2348175,0.47114563,1
1534,9.263657,0.2635498,0.49269104,1
1535,9.324707,0.23362732,0.47473145,1
1536,9.289992999999999,0.21566772,0.4388275,1
1537,9.184647,0.27192688,0.46156309999999995,1
1538,9.284011999999999,0.25756836,0.48910522,1
1539,9.319916000000001,0.28988647,0.36698914,1
1540,9.227737,0.24679565,0.3203125,1
1541,9.300766000000001,0.24679565,0.45558167,1
1542,9.251678,0.23362732,0.49627686,1
1543,9.264847,0.26594543,0.43403625,1
1544,9.227737,0.24798584,0.37417603,1
1545,9.212173,0.24320984,0.33467102,1
1546,9.250488,0.28630066,0.35621643,1
1547,9.303162,0.2635498,0.36221313,1
1548,9.278015,0.2240448,0.3490448,1
1549,9.281616,0.21687317,0.37298584,1
1550,9.280411,0.24919128,0.34304809999999997,1
1551,9.23732,0.23362732,0.35861206,1
1552,9.213379,0.23123169,0.3777771,1
1553,9.245697,0.24919128,0.40290833,1
1554,9.272034,0.25637817,0.42565918,1
1555,9.274429,0.25875854,0.42565918,1
1556,9.274429,0.25756836,0.41607666,1
1557,9.249298,0.22644043,0.46156309999999995,1
1558,9.245697,0.23960876,0.45199585,1
1559,9.273239,0.29109192,0.47473145,1
1560,9.260071,0.2707367,0.48310852,1
1561,9.260071,0.26715088,0.46754456,1
1562,9.258865,0.25517273,0.46276855,1
1563,9.284011999999999,0.25637817,0.46516418,1
1564,9.262466,0.259964,0.49508667,1
1565,9.228943,0.2348175,0.48910522,1
1566,9.226547,0.28509520000000005,0.5489501999999999,1
1567,9.311539,0.26115417,0.5058594,1
1568,9.268448,0.20968628,0.44241333,1
1569,9.23732,0.2300415,0.5226135000000001,1
1570,9.3498535,0.2192688,0.47712708,1
1571,9.306747,0.20489502,0.3705902,1
1572,9.261261,0.23960876,0.42684937,1
1573,9.252884,0.23242188,0.47952269999999997,1
1574,9.221756,0.23602295,0.56811523,1
1575,9.263657,0.24919128,0.56811523,1
1576,9.228943,0.24440002,0.54655457,1
1577,9.228943,0.24798584,0.46395874,1
1578,9.216965,0.22525024,0.49029540000000005,1
1579,9.2708435,0.22525024,0.4807129,1
1580,9.305557,0.23362732,0.48310852,1
1581,9.286407,0.19293213,0.52142334,1
1582,9.279221000000001,0.23721313,0.49748230000000004,1
1583,9.245697,0.24081421,0.48910522,1
1584,9.244507,0.25277710000000003,0.5178375,1
1585,9.249298,0.26235962,0.49150085,1
1586,9.248092999999999,0.27552795,0.5118408,1
1587,9.244507,0.23841858,0.49987793,1
1588,9.25647,0.2707367,0.5381775,1
1589,9.246902,0.2803192,0.5405731,1
1590,9.252884,0.26715088,0.5405731,1
1591,9.251678,0.24798584,0.5178375,1
1592,9.276825,0.2348175,0.54776,1
1593,9.258865,0.2192688,0.50346375,1
1594,9.254074000000001,0.26235962,0.56451416,1
1595,9.242111,0.22764587,0.53219604,1
1596,9.25528,0.24440002,0.5046692,1
1597,9.244507,0.19293213,0.5058594,1
1598,9.262466,0.22164917,0.52142334,1
1599,9.257675,0.23123169,0.53219604,1
1600,9.31633,0.21566772,0.53338623,1
1601,9.250488,0.21566772,0.48431396,1
1602,9.190628,0.21566772,0.5800781,1
1603,9.343857,0.21087646,0.57170105,1
1604,9.309142999999999,0.21447754,0.41009520000000005,1
1605,9.230133,0.2348175,0.45677185,1
1606,9.261261,0.24320984,0.5693054,1
1607,9.216965,0.23960876,0.66148376,1
1608,9.234924000000001,0.24919128,0.58966064,1
1609,9.215775,0.24798584,0.53578186,1
1610,9.246902,0.259964,0.51304626,1
1611,9.252884,0.25756836,0.53938293,1
1612,9.261261,0.26115417,0.5226135000000001,1
1613,9.263657,0.22644043,0.5046692,1
1614,9.248092999999999,0.2803192,0.5956421,1
1615,9.252884,0.24679565,0.5561371,1
1616,9.2313385,0.24200439999999998,0.5094452,1
1617,9.21936,0.22525024,0.5489501999999999,1
1618,9.230133,0.23960876,0.602829,1
1619,9.278015,0.22525024,0.54776,1
1620,9.257675,0.22883606,0.5764923000000001,1
1621,9.278015,0.21208191,0.5992279,1
1622,9.243300999999999,0.22764587,0.58966064,1
1623,9.251678,0.24200439999999998,0.5968323,1
1624,9.248092999999999,0.23602295,0.60401917,1
1625,9.280411,0.25756836,0.5740967,1
1626,9.281616,0.20249939,0.5489501999999999,1
1627,9.239716,0.22285461,0.56211853,1
1628,9.218169999999999,0.25637817,0.5585326999999999,1
1629,9.25528,0.24320984,0.5405731,1
1630,9.2313385,0.24559021,0.52500916,1
1631,9.285202,0.24919128,0.49269104,1
1632,9.266052,0.21806335,0.56092834,1
1633,9.254074000000001,0.24919128,0.60762024,1
1634,9.267242,0.22883606,0.6064148,1
1635,9.289992999999999,0.22525024,0.52142334,1
1636,9.203796,0.25517273,0.53100586,1
1637,9.232529,0.2635498,0.6171875,1
1638,9.323516999999999,0.24200439999999998,0.50346375,1
1639,9.220566,0.20010376,0.44720459999999995,1
1640,9.244507,0.16419983,0.5549469,1
1641,9.2313385,0.21687317,0.68782043,1
1642,9.23732,0.24679565,0.64112854,1
1643,9.263657,0.2300415,0.5405731,1
1644,9.236130000000001,0.24081421,0.52500916,1
1645,9.25647,0.22285461,0.48550415,1
1646,9.264847,0.22164917,0.54296875,1
1647,9.285202,0.25277710000000003,0.54296875,1
1648,9.251678,0.26594543,0.58366394,1
1649,9.286407,0.23242188,0.5968323,1
1650,9.251678,0.25038147,0.5872649999999999,1
1651,9.200211,0.26235962,0.5657196,1
1652,9.224152,0.26475525,0.6088104,1
1653,9.263657,0.2707367,0.6052246,1
1654,9.243300999999999,0.25756836,0.5992279,1
1655,9.23732,0.21087646,0.602829,1
1656,9.23732,0.20489502,0.60043335,1
1657,9.243300999999999,0.20968628,0.5704956,1
1658,9.251678,0.22764587,0.54776,1
1659,9.291183,0.1953125,0.53578186,1
1660,9.260071,0.18933105,0.56092834,1
1661,9.240905999999999,0.23123169,0.5202179,1
1662,9.240905999999999,0.22883606,0.5633239999999999,1
1663,9.234924000000001,0.20370483,0.52500916,1
1664,9.250488,0.21208191,0.5585326999999999,1
1665,9.25647,0.18933105,0.54177856,1
1666,9.234924000000001,0.20370483,0.53338623,1
1667,9.245697,0.24081421,0.56451416,1
1668,9.273239,0.24320984,0.5740967,1
1669,9.293579,0.25038147,0.45797730000000003,1
1670,9.249298,0.2803192,0.44960022,1
1671,9.273239,0.23841858,0.5058594,1
1672,9.327103,0.21447754,0.42086792,1
1673,9.225342,0.18693542,0.36579895,1
1674,9.274429,0.2300415,0.46994020000000003,1
1675,9.263657,0.26235962,0.5058594,1
1676,9.244507,0.22644043,0.49627686,1
1677,9.226547,0.23242188,0.44122314,1
1678,9.228943,0.18693542,0.37298584,1
1679,9.240905999999999,0.19172668,0.43164063,1
1680,9.282805999999999,0.20968628,0.42684937,1
1681,9.299576,0.21566772,0.42326355,1
1682,9.273239,0.22045898,0.46516418,1
1683,9.288788,0.20968628,0.49627686,1
1684,9.267242,0.23602295,0.45677185,1
1685,9.218169999999999,0.21447754,0.43403625,1
1686,9.216965,0.23242188,0.42805479999999996,1
1687,9.260071,0.2132721,0.44480896,1
1688,9.257675,0.22883606,0.45199585,1
1689,9.2708435,0.2707367,0.48910522,1
1690,9.273239,0.24320984,0.5118408,1
1691,9.240905999999999,0.22764587,0.5154419,1
1692,9.25528,0.27552795,0.5010680999999999,1
1693,9.285202,0.27192688,0.5154419,1
1694,9.245697,0.2815094,0.49029540000000005,1
1695,9.236130000000001,0.2348175,0.5190277,1
1696,9.284011999999999,0.23242188,0.48431396,1
1697,9.264847,0.21566772,0.49150085,1
1698,9.239716,0.23362732,0.5202179,1
1699,9.234924000000001,0.22644043,0.48191833,1
1700,9.301956,0.24679565,0.5633239999999999,1
1701,9.275619500000001,0.23721313,0.47354126,1
1702,9.187042,0.1953125,0.47233582,1
1703,9.305557,0.2132721,0.54655457,1
1704,9.366608,0.21687317,0.44241333,1
1705,9.278015,0.20130920000000002,0.37657166,1
1706,9.246902,0.22525024,0.48910522,1
1707,9.232529,0.25277710000000003,0.62316895,1
1708,9.214569000000001,0.24919128,0.57528687,1
1709,9.212173,0.23841858,0.5776825,1
1710,9.251678,0.24798584,0.57170105,1
1711,9.257675,0.22045898,0.55015564,1
1712,9.269638,0.2300415,0.52500916,1
1713,9.251678,0.24200439999999998,0.4986725,1
1714,9.273239,0.26715088,0.53219604,1
1715,9.260071,0.23960876,0.508255,1
1716,9.25528,0.2132721,0.5154419,1
1717,9.227737,0.20130920000000002,0.49987793,1
1718,9.248092999999999,0.27313232,0.49029540000000005,1
1719,9.272034,0.2348175,0.47354126,1
1720,9.29837,0.26834106,0.45916748,1
1721,9.257675,0.27192688,0.44241333,1
1722,9.245697,0.24798584,0.47233582,1
1723,9.252884,0.27671814,0.46037292,1
1724,9.280411,0.2707367,0.5010680999999999,1
1725,9.2313385,0.27552795,0.5226135000000001,1
1726,9.269638,0.23960876,0.47114563,1
1727,9.282805999999999,0.25756836,0.5046692,1
1728,9.266052,0.24559021,0.49627686,1
1729,9.254074000000001,0.25038147,0.47593690000000005,1
1730,9.246902,0.20968628,0.51304626,1
1731,9.210983,0.23123169,0.55374146,1
1732,9.239716,0.2348175,0.54177856,1
1733,9.307953,0.20610046,0.53338623,1
1734,9.233734,0.18693542,0.48910522,1
1735,9.225342,0.19172668,0.61239624,1
1736,9.336685000000001,0.20370483,0.52500916,1
1737,9.289992999999999,0.19293213,0.40649414,1
1738,9.280411,0.2132721,0.44839478,1
1739,9.25647,0.23242188,0.54296875,1
1740,9.262466,0.20489502,0.6471100000000001,1
1741,9.212173,0.259964,0.59085083,1
1742,9.236130000000001,0.24320984,0.5585326999999999,1
1743,9.216965,0.25637817,0.5669098000000001,1
1744,9.261261,0.17497253,0.5453644,1
1745,9.281616,0.22164917,0.5381775,1
1746,9.285202,0.23242188,0.5561371,1
1747,9.29837,0.21687317,0.5573273,1
1748,9.269638,0.24320984,0.56811523,1
1749,9.251678,0.24919128,0.5262146,1
1750,9.260071,0.23362732,0.5046692,1
1751,9.285202,0.2192688,0.53578186,1
1752,9.267242,0.2192688,0.58128357,1
1753,9.263657,0.1797638,0.5190277,1
1754,9.232529,0.20968628,0.5585326999999999,1
1755,9.242111,0.19770813,0.5274048000000001,1
1756,9.23851,0.22883606,0.5453644,1
1757,9.264847,0.24440002,0.5992279,1
1758,9.230133,0.22525024,0.5776825,1
1759,9.258865,0.21566772,0.5585326999999999,1
1760,9.275619500000001,0.21447754,0.55255127,1
1761,9.25528,0.24200439999999998,0.56211853,1
1762,9.254074000000001,0.22644043,0.5657196,1
1763,9.242111,0.23602295,0.5441741999999999,1
1764,9.2313385,0.25038147,0.5561371,1
1765,9.248092999999999,0.25517273,0.58966064,1
1766,9.307953,0.22883606,0.53338623,1
1767,9.214569000000001,0.22764587,0.53100586,1
1768,9.210983,0.24919128,0.5669098000000001,1
1769,9.333084,0.24919128,0.5992279,1
1770,9.322311000000001,0.20729065,0.40171814,1
1771,9.233734,0.23721313,0.44122314,1
1772,9.25528,0.2300415,0.68063354,1
1773,9.249298,0.23362732,0.67944336,1
1774,9.239716,0.22883606,0.6207885999999999,1
1775,9.236130000000001,0.24919128,0.53219604,1
1776,9.2313385,0.26115417,0.5561371,1
1777,9.267242,0.26594543,0.5561371,1
1778,9.284011999999999,0.23960876,0.5154419,1
1779,9.251678,0.22164917,0.5453644,1
1780,9.272034,0.24081421,0.5764923000000001,1
1781,9.261261,0.2132721,0.5585326999999999,1
1782,9.279221000000001,0.24081421,0.53578186,1
1783,9.23851,0.23602295,0.55015564,1
1784,9.264847,0.22525024,0.58366394,1
1785,9.269638,0.24200439999999998,0.5381775,1
1786,9.257675,0.17376709,0.49150085,1
1787,9.273239,0.21566772,0.53338623,1
1788,9.243300999999999,0.2240448,0.53578186,1
1789,9.246902,0.26834106,0.54296875,1
1790,9.257675,0.23960876,0.56092834,1
1791,9.25528,0.1953125,0.55255127,1
1792,9.254074000000001,0.1953125,0.57888794,1
1793,9.278015,0.24798584,0.5094452,1
1794,9.257675,0.21208191,0.52500916,1
1795,9.236130000000001,0.19293213,0.5202179,1
1796,9.228943,0.20010376,0.49627686,1
1797,9.242111,0.23960876,0.43762207,1
1798,9.29718,0.23841858,0.429245,1
1799,9.33429,0.25637817,0.41368103,1
1800,9.243300999999999,0.25637817,0.42326355,1
1801,9.201400999999999,0.29109192,0.47833252,1
1802,9.306747,0.24559021,0.47593690000000005,1
1803,9.303162,0.23960876,0.33946228,1
1804,9.246902,0.23602295,0.37657166,1
1805,9.284011999999999,0.21806335,0.48310852,1
1806,9.245697,0.19412231,0.47473145,1
1807,9.21936,0.1725769,0.3777771,1
1808,9.233734,0.21208191,0.39811707,1
1809,9.233734,0.20848083,0.4112854,1
1810,9.279221000000001,0.21208191,0.38615417,1
1811,9.321121,0.22883606,0.32629395,1
1812,9.299576,0.21566772,0.38494873,1
1813,9.294785000000001,0.20729065,0.46395874,1
1814,9.268448,0.23362732,0.429245,1
1815,9.267242,0.24798584,0.42326355,1
1816,9.21936,0.2132721,0.41249084,1
1817,9.23732,0.24320984,0.41009520000000005,1
1818,9.240905999999999,0.24200439999999998,0.45079040000000004,1
1819,9.240905999999999,0.23123169,0.5010680999999999,1
1820,9.25528,0.25277710000000003,0.5274048000000001,1
1821,9.29718,0.22644043,0.53100586,1
1822,9.2708435,0.21087646,0.5118408,1
1823,9.262466,0.23960876,0.54776,1
1824,9.257675,0.22045898,0.58366394,1
1825,9.233734,0.27671814,0.58366394,1
1826,9.261261,0.2348175,0.5657196,1
1827,9.292389,0.24919128,0.52142334,1
1828,9.234924000000001,0.20010376,0.54296875,1
1829,9.222961,0.17736816,0.5740967,1
1830,9.280411,0.2240448,0.5633239999999999,1
1831,9.260071,0.23721313,0.5740967,1
1832,9.202606,0.17376709,0.5944519,1
1833,9.293579,0.18334961,0.61839294,1
1834,9.330688,0.16539001,0.45677185,1
1835,9.264847,0.17376709,0.39811707,1
1836,9.268448,0.21687317,0.52500916,1
1837,9.227737,0.2515869,0.64352417,1
1838,9.221756,0.25756836,0.6100005999999999,1
1839,9.227737,0.2300415,0.5262146,1
1840,9.25528,0.21687317,0.51423645,1
1841,9.269638,0.2635498,0.56211853,1
1842,9.252884,0.25637817,0.51065063,1
1843,9.263657,0.25756836,0.51423645,1
1844,9.269638,0.25637817,0.56451416,1
1845,9.299576,0.27432249999999997,0.56092834,1
1846,9.257675,0.24200439999999998,0.5286102,1
1847,9.228943,0.2515869,0.5274048000000001,1
1848,9.257675,0.23123169,0.5274048000000001,1
1849,9.257675,0.20010376,0.5573273,1
1850,9.246902,0.20010376,0.55255127,1
1851,9.240905999999999,0.21087646,0.57170105,1
1852,9.272034,0.20370483,0.6159973000000001,1
1853,9.269638,0.19770813,0.57528687,1
1854,9.224152,0.18214417,0.6315613,1
1855,9.25647,0.20848083,0.62916565,1
1856,9.279221000000001,0.16778564,0.61120605,1
1857,9.262466,0.20489502,0.5573273,1
1858,9.252884,0.18693542,0.55374146,1
1859,9.25528,0.17736816,0.55015564,1
1860,9.257675,0.21806335,0.5549469,1
1861,9.215775,0.20848083,0.5669098000000001,1
1862,9.25647,0.2240448,0.60401917,1
1863,9.289992999999999,0.20249939,0.5274048000000001,1
1864,9.197815,0.22045898,0.5489501999999999,1
1865,9.240905999999999,0.24200439999999998,0.61479187,1
1866,9.340271000000001,0.27792358,0.52142334,1
1867,9.2708435,0.24919128,0.46875,1
1868,9.227737,0.25637817,0.55255127,1
1869,9.242111,0.23841858,0.6531066999999999,1
1870,9.228943,0.22644043,0.6842345999999999,1
1871,9.221756,0.1905365,0.61479187,1
1872,9.236130000000001,0.24200439999999998,0.5800781,1
1873,9.21936,0.20729065,0.5800781,1
1874,9.224152,0.24559021,0.57888794,1
1875,9.281616,0.22764587,0.60162354,1
1876,9.273239,0.20010376,0.5597229,1
1877,9.260071,0.22525024,0.60762024,1
1878,9.278015,0.23960876,0.59324646,1
1879,9.232529,0.23721313,0.60401917,1
1880,9.232529,0.21208191,0.57289124,1
1881,9.268448,0.1845398,0.5944519,1
1882,9.242111,0.21208191,0.5860595999999999,1
1883,9.245697,0.19293213,0.6375427,1
1884,9.25528,0.21806335,0.5920563,1
1885,9.205002,0.23242188,0.58966064,1
1886,9.248092999999999,0.22883606,0.6100005999999999,1
1887,9.262466,0.20848083,0.6375427,1
1888,9.284011999999999,0.22285461,0.5956421,1
1889,9.273239,0.2132721,0.5764923000000001,1
1890,9.273239,0.24679565,0.602829,1
1891,9.244507,0.22525024,0.6088104,1
1892,9.262466,0.20370483,0.5968323,1
1893,9.261261,0.20130920000000002,0.5860595999999999,1
1894,9.23851,0.23841858,0.61239624,1
1895,9.227737,0.20968628,0.6279602,1
1896,9.25647,0.2348175,0.6363373000000001,1
1897,9.285202,0.19770813,0.5693054,1
1898,9.23732,0.22045898,0.60043335,1
1899,9.216965,0.2348175,0.7069701999999999,1
1900,9.3546295,0.22285461,0.5657196,1
1901,9.275619500000001,0.23362732,0.44720459999999995,1
1902,9.239716,0.20968628,0.56451416,1
1903,9.260071,0.18933105,0.7045746,1
1904,9.252884,0.24081421,0.69740295,1
1905,9.23732,0.259964,0.56451416,1
1906,9.225342,0.25517273,0.56092834,1
1907,9.208588,0.24081421,0.6159973000000001,1
1908,9.236130000000001,0.25398254,0.57289124,1
1909,9.248092999999999,0.23242188,0.58128357,1
1910,9.267242,0.21566772,0.61839294,1
1911,9.2708435,0.2240448,0.63394165,1
1912,9.285202,0.18095398,0.5776825,1
1913,9.25647,0.22764587,0.5669098000000001,1
1914,9.239716,0.22644043,0.5800781,1
1915,9.232529,0.2192688,0.59324646,1
1916,9.243300999999999,0.2300415,0.60762024,1
1917,9.252884,0.19770813,0.5980376999999999,1
1918,9.240905999999999,0.21806335,0.6171875,1
1919,9.260071,0.24440002,0.6483154000000001,1
1920,9.266052,0.20610046,0.5992279,1
1921,9.262466,0.20610046,0.56092834,1
1922,9.250488,0.16778564,0.5369873000000001,1
1923,9.221756,0.18214417,0.55015564,1
1924,9.224152,0.14743042,0.58966064,1
1925,9.284011999999999,0.18334961,0.61239624,1
1926,9.274429,0.29588318,0.5968323,1
1927,9.284011999999999,0.31742859999999995,0.56211853,1
1928,9.288788,0.28869629999999996,0.5800781,1
1929,9.267242,0.29348755,0.5920563,1
1930,9.220566,0.31622314,0.6279602,1
1931,9.273239,0.29826355,0.5369873000000001,1
1932,9.234924000000001,0.27313232,0.46395874,1
1933,9.206192,0.20370483,0.5286102,1
1934,9.307953,0.119903564,0.48670959999999996,1
1935,9.309142999999999,0.13067627,0.38615417,1
1936,9.244507,0.17855835,0.40171814,1
1937,9.257675,0.17616272,0.5202179,1
1938,9.295975,0.22045898,0.5884552,1
1939,9.284011999999999,0.22045898,0.48431396,1
1940,9.239716,0.16778564,0.47473145,1
1941,9.21936,0.20130920000000002,0.40649414,1
1942,9.246902,0.2192688,0.42684937,1
1943,9.286407,0.19891357,0.42445374,1
1944,9.25647,0.2192688,0.44360352,1
1945,9.282805999999999,0.20370483,0.53100586,1
1946,9.303162,0.19770813,0.53938293,1
1947,9.293579,0.2192688,0.49150085,1
1948,9.261261,0.20610046,0.46875,1
1949,9.23851,0.25637817,0.5226135000000001,1
1950,9.234924000000001,0.24679565,0.57170105,1
1951,9.243300999999999,0.2515869,0.6052246,1
1952,9.274429,0.27313232,0.63394165,1
1953,9.267242,0.2515869,0.64352417,1
1954,9.258865,0.26834106,0.6495055999999999,1
1955,9.254074000000001,0.24081421,0.64352417,1
1956,9.2313385,0.21566772,0.6267699999999999,1
1957,9.249298,0.20729065,0.62916565,1
1958,9.23851,0.20010376,0.6100005999999999,1
1959,9.267242,0.22045898,0.53578186,1
1960,9.261261,0.17018127,0.5118408,1
1961,9.258865,0.16539001,0.52500916,1
1962,9.250488,0.1953125,0.5956421,1
1963,9.286407,0.22883606,0.61239624,1
1964,9.279221000000001,0.19412231,0.53938293,1
1965,9.190628,0.25637817,0.5669098000000001,1
1966,9.252884,0.22764587,0.61479187,1
1967,9.353439,0.2240448,0.5154419,1
1968,9.275619500000001,0.21447754,0.4328308,1
1969,9.246902,0.25277710000000003,0.56092834,1
1970,9.250488,0.25038147,0.70936584,1
1971,9.230133,0.24559021,0.721344,1
1972,9.201400999999999,0.21566772,0.6363373000000001,1
1973,9.200211,0.22285461,0.6171875,1
1974,9.254074000000001,0.18814087,0.5884552,1
1975,9.25647,0.20968628,0.5704956,1
1976,9.25647,0.2192688,0.5441741999999999,1
1977,9.23851,0.21566772,0.57289124,1
1978,9.258865,0.19172668,0.6100005999999999,1
1979,9.280411,0.18814087,0.5860595999999999,1
1980,9.261261,0.15701294,0.54776,1
1981,9.25528,0.16059875,0.5884552,1
1982,9.286407,0.19172668,0.6351471,1
1983,9.274429,0.22525024,0.6159973000000001,1
1984,9.272034,0.19651794,0.5884552,1
1985,9.249298,0.15701294,0.63394165,1
1986,9.269638,0.20610046,0.6171875,1
1987,9.260071,0.20370483,0.62916565,1
1988,9.268448,0.25637817,0.6602783,1
1989,9.29837,0.3138275,0.6938019,1
1990,9.261261,0.24440002,0.6315613,1
1991,9.282805999999999,0.16059875,0.59085083,1
1992,9.281616,0.13067627,0.57170105,1
1993,9.311539,0.074417114,0.5585326999999999,1
1994,9.260071,0.14982605,0.57170105,1
1995,9.17627,0.18693542,0.6746521,1
1996,9.182250999999999,0.20968628,0.75964355,1
1997,9.254074000000001,0.18693542,0.642334,1
1998,9.23732,0.19412231,0.5944519,1
1999,9.329498,0.18095398,0.62316895,1
2000,9.439636,0.20010376,0.56211853,1
2001,9.355835,0.19412231,0.48431396,1
2002,9.2708435,0.26834106,0.58247375,1
2003,9.243300999999999,0.30665588,0.6842345999999999,1
2004,9.155914,0.34136963,0.765625,1
2005,9.157119999999999,0.42636108,0.7572479,1
2006,9.194229,0.42277527,0.7464751999999999,1
2007,9.196625,0.39523315,0.7716217,1
2008,9.209793,0.33178709999999995,0.8254851999999999,1
2009,9.218169999999999,0.33537292,0.9451904000000001,1
2010,9.21936,0.27313232,1.0577239999999999,1
2011,9.254074000000001,0.30186462,1.1056061000000001,1
2012,9.224152,0.28869629999999996,1.0720825,1
2013,9.189438,0.24919128,1.0301970999999999,1
2014,9.214569000000001,0.25756836,1.0062408,1
2015,9.166687,0.24798584,0.9859009,1
2016,9.125992,0.23721313,0.95596313,1
2017,9.169083,0.2240448,0.8997040000000001,1
2018,9.181061,0.27552795,0.8877411000000001,1
2019,9.227737,0.28869629999999996,0.8841399999999999,1
2020,9.234924000000001,0.31143188,0.82429504,1
2021,9.242111,0.27911377,0.8410492,1
2022,9.193024000000001,0.24320984,0.8266754000000001,1
2023,9.210983,0.24919128,0.8027344,1
2024,9.210983,0.16897583,0.83625793,1
2025,9.17627,0.17497253,0.7799988,1
2026,9.151123,0.19172668,0.7967529000000001,1
2027,9.179855,0.1953125,0.8374634,1
2028,9.182250999999999,0.18214417,0.8302765,1
2029,9.225342,0.14982605,0.7428894,1
2030,9.273239,0.15940857,0.74528503,1
2031,9.257675,0.24679565,0.73091125,1
2032,9.3941345,0.25637817,0.62916565,1
2033,9.384567,0.259964,0.39213562,1
2034,9.285202,0.26594543,0.27841187,1
2035,9.293579,0.31861877,0.30354309999999995,1
2036,9.33429,0.34854126,0.42086792,1
2037,9.327103,0.4359436,0.47473145,1
2038,9.305557,0.44192505,0.5693054,1
2039,9.305557,0.37608337,0.66267395,1
2040,9.2313385,0.24679565,0.7512665,1
2041,9.169083,0.12109375,0.86380005,1
2042,9.135558999999999,0.046875,0.9451904000000001,1
2043,9.175064,-0.012969971,1.0289917,1
2044,9.275619500000001,-0.02015686,1.04216,1
2045,9.295975,-0.042907715,1.0062408,1
2046,9.244507,-0.05607605,1.0696868999999998,1
2047,9.193024000000001,-0.040512085,1.1068115,1
2048,9.171478,-0.030929565,1.1091919,1
2049,9.196625,0.02293396,1.0230103000000002,1
2050,9.249298,0.03730774,0.89372253,1
2051,9.313934,0.05166626,0.7728119000000001,1
2052,9.303162,0.06842041,0.77760315,1
2053,9.246902,0.024139404,0.8135071,1
2054,9.1128235,0.02772522,0.85661316,1
2055,9.104446000000001,0.074417114,0.8326720999999999,1
2056,9.215775,0.043289185,0.82788086,1
2057,9.25647,0.031311035,0.72612,1
2058,9.291183,-0.030929565,0.71295166,1
2059,9.319916000000001,-0.0728302,0.8087310999999999,1
2060,9.369003,-0.04888916,0.8314666999999999,1
2061,9.340271000000001,-0.040512085,0.7536621,1
2062,9.200211,0.03970337,0.7368927,1
2063,9.184647,0.08998108,0.71655273,1
2064,9.312744,0.09715271,0.66867065,1
2065,9.260071,0.024139404,0.67944336,1
2066,9.284011999999999,-0.054870605,0.83506775,1
2067,9.299576,-0.16021729,0.99546814,1
2068,9.333084,-0.22605896,1.0397644,1
2069,9.295975,-0.20451355,0.978714,1
2070,9.25647,-0.14106749999999998,0.92604065,1
2071,9.275619500000001,-0.11831665,0.9128723,1
2072,9.249298,-0.085998535,0.8326720999999999,1
2073,9.17746,-0.06564331,0.78118896,1
2074,9.13916,-0.0010070800999999999,0.86499023,1
2075,9.170288000000001,-0.0021972656,0.91885376,1
2076,9.230133,0.09715271,0.8434448,1
2077,9.306747,0.21087646,0.78718567,1
2078,9.31633,0.26115417,0.7440796,1
2079,9.294785000000001,0.25756836,0.7536621,1
2080,9.254074000000001,0.2707367,0.71295166,1
2081,9.206192,0.24559021,0.76683044,1
2082,9.17746,0.27192688,0.7440796,1
2083,9.200211,0.27552795,0.74168396,1
2084,9.227737,0.29109192,0.7368927,1
2085,9.242111,0.24679565,0.8326720999999999,1
2086,9.257675,0.25517273,0.85780334,1
2087,9.273239,0.21687317,0.88534546,1
2088,9.225342,0.15222168,0.87457275,1
2089,9.195419000000001,0.12348938,0.8266754000000001,1
2090,9.242111,0.11631775,0.82429504,1
2091,9.249298,0.117507935,0.78837585,1
2092,9.252884,0.13426208,0.8027344,1
2093,9.2313385,0.13665771,0.8374634,1
2094,9.292389,0.15701294,0.8625946,1
2095,9.252884,0.16419983,0.71655273,1
2096,9.212173,0.18334961,0.6638794,1
2097,9.272034,0.16299438,0.7620392,1
2098,9.263657,0.18933105,0.8314666999999999,1
2099,9.2313385,0.23960876,0.81710815,1
2100,9.216965,0.24200439999999998,0.7440796,1
2101,9.182250999999999,0.20370483,0.70817566,1
2102,9.205002,0.18933105,0.7069701999999999,1
2103,9.124786,0.2132721,0.6100005999999999,1
2104,9.024231,0.1953125,0.5058594,1
2105,9.001495,0.13665771,0.5010680999999999,1
2106,9.285202,0.19770813,0.53219604,1
2107,9.499481,0.23242188,0.508255,1
2108,9.600037,0.28988647,0.5046692,1
2109,9.513855,0.24081421,0.5274048000000001,1
2110,9.342667,0.16299438,0.53578186,1
2111,9.210983,0.069625854,0.57170105,1
2112,9.146347,0.05885315,0.6890106,1
2113,9.146347,0.08758545,0.8482360999999999,1
2114,9.163101,0.038497925,0.95118713,1
2115,9.189438,0.0181427,0.93562317,1
2116,9.239716,0.008575439,0.9032898000000001,1
2117,9.351044,-0.009384155,0.80633545,1
2118,9.4096985,0.03730774,0.66867065,1
2119,9.3893585,0.12709045,0.5968323,1
2120,9.301956,0.20130920000000002,0.5657196,1
2121,9.254074000000001,0.37368774,0.5286102,1
2122,9.111618,0.39164734,0.57170105,1
2123,9.111618,0.33299255,0.49269104,1
2124,9.209793,0.4407196,0.5094452,1
2125,9.343857,0.2132721,0.59324646,1
2126,9.137955,0.14982605,0.44360352,1
2127,9.07811,-0.2715454,0.6100005999999999,1
2128,9.250488,0.088775635,0.49150085,1
2129,9.359421000000001,0.02053833,0.6136017,1
2130,9.272034,0.30903625,0.48789978,1
2131,9.082901,-0.054870605,0.68063354,1
2132,9.136764999999999,0.06124878,0.20898438,1
2133,9.364212,0.10194397,0.46516418,1
2134,9.456389999999999,0.40960693,0.3825531,1
2135,9.425262,0.2192688,0.5657196,1
2136,9.14035,0.110321045,0.39572144,1
2137,9.169083,0.08998108,0.44001769999999996,1
2138,9.072113,0.021743774,0.34304809999999997,1
2139,9.103241,-0.078811646,0.35502625,1
2140,9.213379,-0.17817688,0.30474854,1
2141,9.221756,-0.25,0.36100770000000004,1
2142,9.379776,-0.32182312,0.35742188,1
2143,9.400131,-0.32661438,0.29637146,1
2144,9.407303,-0.25120544,0.36698914,1
2145,9.481522,-0.23922729999999998,0.35144043,1
2146,9.495894999999999,-0.18415833,0.27482605,1
2147,9.355835,-0.14346313,0.30714417,1
2148,9.214569000000001,-0.13388062,0.34544373,1
2149,9.166687,-0.05368042,0.32150270000000003,1
2150,9.191833500000001,0.083984375,0.33467102,1
2151,9.267242,0.22644043,0.3705902,1
2152,9.31752,0.1953125,0.32270813,1
2153,9.268448,-0.02015686,0.35502625,1
2154,9.341461,-0.15184021,0.38974000000000003,1
2155,9.434845,-0.17698670000000002,0.38136292,1
2156,9.3546295,-0.112335205,0.32748413,1
2157,9.246902,-0.112335205,0.34783936,1
2158,9.258865,-0.088394165,0.3490448,1
2159,9.305557,-0.07043457,0.4040985,1
2160,9.31752,-0.09437561,0.37896729999999995,1
2161,9.263657,-0.07043457,0.36579895,1
2162,9.240905999999999,-0.14704895,0.32510376,1
2163,9.263657,-0.19374084,0.31910706,1
2164,9.257675,-0.16500854,0.28199768,1
2165,9.236130000000001,-0.13508606,0.24848938,1
2166,9.263657,-0.12071228,0.27122498,1
2167,9.323516999999999,-0.12071228,0.19581604,1
2168,9.267242,-0.16381836,0.18144226,1
2169,9.278015,-0.12550354,0.171875,1
2170,9.328292999999999,-0.102752686,0.216156,1
2171,9.33429,-0.07641601599999999,0.2640381,1
2172,9.313934,-0.0440979,0.29995728,1
2173,9.232529,0.0061798096,0.32510376,1
2174,9.249298,0.031311035,0.32868958,1
2175,9.228943,0.009765625,0.4112854,1
2176,9.272034,0.02293396,0.43043518,1
2177,9.3103485,0.0013885498,0.50704956,1
2178,9.307953,0.007369995,0.48431396,1
2179,9.288788,0.01574707,0.49627686,1
2180,9.266052,0.014556885,0.42565918,1
2181,9.323516999999999,-0.00340271,0.41249084,1
2182,9.322311000000001,0.016952515,0.39453125,1
2183,9.218169999999999,0.012161255,0.35861206,1
2184,9.222961,0.007369995,0.3825531,1
2185,9.336685000000001,-0.03930664,0.36221313,1
2186,9.29837,-0.059661865,0.33827209999999996,1
2187,9.23851,-0.05847168,0.35263062,1
2188,9.25528,-0.08241272,0.38015747,1
2189,9.289992999999999,-0.011779785,0.42684937,1
2190,9.279221000000001,-0.0105896,0.41726685,1
2191,9.240905999999999,0.03491211,0.4040985,1
2192,9.239716,0.021743774,0.40769958,1
2193,9.23851,0.0061798096,0.41966248,1
2194,9.294785000000001,-0.030929565,0.41607666,1
2195,9.284011999999999,-0.030929565,0.45558167,1
2196,9.294785000000001,-0.02255249,0.47114563,1
2197,9.300766000000001,0.036102295,0.3885498,1
2198,9.273239,0.055252075,0.39453125,1
2199,9.227737,0.052871704000000005,0.4388275,1
2200,9.286407,0.060043335,0.48191833,1
2201,9.232529,0.02532959,0.46395874,1
2202,9.242111,0.02053833,0.49748230000000004,1
2203,9.272034,0.012161255,0.49748230000000004,1
2204,9.262466,0.007369995,0.56092834,1
2205,9.276825,0.046875,0.5405731,1
2206,9.261261,0.028915405,0.508255,1
2207,9.295975,0.055252075,0.49627686,1
2208,9.284011999999999,0.03730774,0.45439148,1
2209,9.269638,0.01574707,0.47354126,1
2210,9.250488,0.028915405,0.5118408,1
2211,9.3103485,0.016952515,0.48670959999999996,1
2212,9.276825,0.03251648,0.44960022,1
2213,9.225342,0.043289185,0.48789978,1
2214,9.25528,0.031311035,0.49508667,1
2215,9.343857,0.06364441,0.45439148,1
2216,9.25647,0.021743774,0.3717804,1
2217,9.257675,0.021743774,0.47114563,1
2218,9.264847,0.010971068999999998,0.60762024,1
2219,9.261261,-0.006988525400000001,0.58247375,1
2220,9.262466,0.03251648,0.5405731,1
2221,9.212173,0.031311035,0.49388123,1
2222,9.2708435,0.009765625,0.48670959999999996,1
2223,9.305557,-0.0021972656,0.47354126,1
2224,9.291183,0.024139404,0.44960022,1
2225,9.274429,0.01574707,0.44720459999999995,1
2226,9.272034,0.02532959,0.48550415,1
2227,9.272034,0.028915405,0.44839478,1
2228,9.273239,0.074417114,0.4220581,1
2229,9.23851,0.050476074,0.47354126,1
2230,9.262466,0.06842041,0.47712708,1
2231,9.281616,0.04447937,0.43164063,1
2232,9.29718,0.02053833,0.45916748,1
2233,9.276825,0.04208374,0.51065063,1
2234,9.23851,0.01574707,0.48550415,1
2235,9.236130000000001,0.033706665,0.51065063,1
2236,9.269638,0.038497925,0.47473145,1
2237,9.264847,0.03012085,0.53938293,1
2238,9.264847,0.033706665,0.5453644,1
2239,9.2708435,0.026535034,0.52381897,1
2240,9.279221000000001,0.04808044400000001,0.49748230000000004,1
2241,9.243300999999999,0.04447937,0.5441741999999999,1
2242,9.276825,0.05166626,0.51065063,1
2243,9.260071,0.04208374,0.43403625,1
2244,9.193024000000001,0.04447937,0.49029540000000005,1
2245,9.3103485,0.043289185,0.54296875,1
2246,9.330688,0.03970337,0.4328308,1
2247,9.260071,0.052871704000000005,0.40888977,1
2248,9.254074000000001,0.04808044400000001,0.53219604,1
2249,9.254074000000001,0.03012085,0.5740967,1
2250,9.242111,0.050476074,0.5286102,1
2251,9.234924000000001,0.02053833,0.43643188,1
2252,9.250488,0.043289185,0.45079040000000004,1
2253,9.269638,0.11152649,0.48910522,1
2254,9.25528,0.067230225,0.5381775,1
2255,9.267242,0.031311035,0.49029540000000005,1
2256,9.268448,0.064834595,0.5597229,1
2257,9.309142999999999,0.062438965,0.54655457,1
2258,9.2708435,0.05885315,0.49029540000000005,1
2259,9.272034,0.057647705,0.52381897,1
2260,9.239716,0.05166626,0.5633239999999999,1
2261,9.249298,0.055252075,0.5848694000000001,1
2262,9.263657,0.05885315,0.5657196,1
2263,9.25528,0.040893555,0.5178375,1
2264,9.251678,0.04927063,0.54296875,1
2265,9.2708435,0.038497925,0.46754456,1
2266,9.260071,0.040893555,0.45079040000000004,1
2267,9.312744,0.04927063,0.46156309999999995,1
2268,9.304352,0.03251648,0.4184723,1
2269,9.285202,0.088775635,0.47593690000000005,1
2270,9.246902,0.08758545,0.5118408,1
2271,9.216965,0.062438965,0.5405731,1
2272,9.202606,0.091171265,0.5657196,1
2273,9.263657,0.098358154,0.6255646,1
2274,9.299576,0.055252075,0.58366394,1
2275,9.285202,0.07081604,0.53938293,1
2276,9.208588,0.060043335,0.5441741999999999,1
2277,9.3103485,0.060043335,0.63275146,1
2278,9.347458,0.021743774,0.5166321,1
2279,9.227737,0.038497925,0.48431396,1
2280,9.254074000000001,0.02293396,0.53219604,1
2281,9.303162,0.024139404,0.5549469,1
2282,9.267242,0.03970337,0.53338623,1
2283,9.251678,0.040893555,0.49269104,1
2284,9.244507,0.040893555,0.47593690000000005,1
2285,9.261261,0.05166626,0.43164063,1
2286,9.266052,0.028915405,0.46754456,1
2287,9.278015,0.04447937,0.46156309999999995,1
2288,9.272034,0.069625854,0.51423645,1
2289,9.330688,0.074417114,0.5178375,1
2290,9.293579,0.064834595,0.47473145,1
2291,9.224152,0.024139404,0.4807129,1
2292,9.248092999999999,0.03491211,0.52500916,1
2293,9.269638,0.036102295,0.5118408,1
2294,9.272034,0.074417114,0.51423645,1
2295,9.264847,0.05166626,0.47593690000000005,1
2296,9.267242,0.052871704000000005,0.46875,1
2297,9.248092999999999,0.067230225,0.4328308,1
2298,9.250488,0.060043335,0.46037292,1
2299,9.226547,0.06124878,0.41368103,1
2300,9.25647,0.062438965,0.42684937,1
2301,9.293579,0.046875,0.37538147,1
2302,9.29837,0.057647705,0.34425354,1
2303,9.23732,0.07321167,0.39692688,1
2304,9.190628,0.08758545,0.4328308,1
2305,9.278015,0.079193115,0.48550415,1
2306,9.325911999999999,0.086380005,0.40530396,1
2307,9.261261,0.09954834,0.38615417,1
2308,9.202606,0.08279419,0.47593690000000005,1
2309,9.345061999999999,0.057647705,0.46994020000000003,1
2310,9.311539,0.04808044400000001,0.33467102,1
2311,9.239716,0.02053833,0.38375854,1
2312,9.245697,0.069625854,0.51423645,1
2313,9.268448,0.03491211,0.5740967,1
2314,9.251678,0.07800293,0.5944519,1
2315,9.248092999999999,0.115112305,0.5764923000000001,1
2316,9.263657,0.093566895,0.53938293,1
2317,9.233734,0.10194397,0.5441741999999999,1
2318,9.267242,0.06124878,0.48910522,1
2319,9.284011999999999,0.0756073,0.46276855,1
2320,9.291183,0.05645752,0.52381897,1
2321,9.293579,0.09236145,0.56811523,1
2322,9.243300999999999,0.064834595,0.49150085,1
2323,9.21936,0.03251648,0.5166321,1
2324,9.244507,0.06842041,0.49029540000000005,1
2325,9.269638,0.060043335,0.53578186,1
2326,9.244507,0.043289185,0.47473145,1
2327,9.250488,0.062438965,0.54655457,1
2328,9.240905999999999,0.05645752,0.5178375,1
2329,9.286407,0.052871704000000005,0.54296875,1
2330,9.284011999999999,0.046875,0.51304626,1
2331,9.261261,0.045684814000000004,0.5573273,1
2332,9.288788,0.07081604,0.5513458000000001,1
2333,9.293579,0.06364441,0.54776,1
2334,9.273239,0.055252075,0.52142334,1
2335,9.239716,0.064834595,0.53578186,1
2336,9.226547,0.09475708,0.5633239999999999,1
2337,9.267242,0.074417114,0.5944519,1
2338,9.3103485,0.04447937,0.51423645,1
2339,9.194229,0.03730774,0.5190277,1
2340,9.218169999999999,0.02532959,0.5860595999999999,1
2341,9.361816000000001,0.04447937,0.52500916,1
2342,9.307953,0.05166626,0.40290833,1
2343,9.261261,0.04447937,0.47712708,1
2344,9.25647,0.064834595,0.5776825,1
2345,9.248092999999999,0.055252075,0.62916565,1
2346,9.239716,0.07202148400000001,0.5968323,1
2347,9.262466,0.043289185,0.5405731,1
2348,9.25528,0.057647705,0.57528687,1
2349,9.260071,0.09954834,0.53219604,1
2350,9.254074000000001,0.06842041,0.5489501999999999,1
2351,9.267242,0.05166626,0.5561371,1
2352,9.285202,0.060043335,0.56811523,1
2353,9.311539,0.09475708,0.5585326999999999,1
2354,9.266052,0.088775635,0.5226135000000001,1
2355,9.23732,0.076812744,0.5573273,1
2356,9.246902,0.07081604,0.5704956,1
2357,9.224152,0.007369995,0.57888794,1
2358,9.257675,0.043289185,0.5800781,1
2359,9.282805999999999,0.060043335,0.5549469,1
2360,9.251678,0.055252075,0.58366394,1
2361,9.250488,0.052871704000000005,0.56811523,1
2362,9.262466,0.046875,0.5740967,1
2363,9.25647,0.07800293,0.5944519,1
2364,9.262466,0.04208374,0.5956421,1
2365,9.279221000000001,0.057647705,0.5800781,1
2366,9.289992999999999,0.050476074,0.5405731,1
2367,9.236130000000001,0.06364441,0.55374146,1
2368,9.245697,0.0756073,0.5920563,1
2369,9.258865,0.06124878,0.58247375,1
2370,9.321121,0.01574707,0.5764923000000001,1
2371,9.360626,0.08758545,0.5190277,1
2372,9.29837,-0.0021972656,0.52142334,1
2373,9.333084,0.05406189,0.5597229,1
2374,9.295975,0.086380005,0.50704956,1
2375,9.224152,0.08039856,0.61839294,1
2376,9.208588,0.06364441,0.73928833,1
2377,9.185837,0.06364441,0.72612,1
2378,9.195419000000001,0.110321045,0.6447295999999999,1
2379,9.202606,0.098358154,0.6088104,1
2380,9.281616,0.069625854,0.60401917,1
2381,9.29718,0.0756073,0.6136017,1
2382,9.222961,0.064834595,0.61239624,1
2383,9.220566,0.06602478,0.65190125,1
2384,9.252884,0.031311035,0.71894836,1
2385,9.281616,0.036102295,0.6938019,1
2386,9.267242,0.02053833,0.642334,1
2387,9.212173,0.07081604,0.6938019,1
2388,9.216965,0.09236145,0.721344,1
2389,9.232529,0.11631775,0.666275,1
2390,9.257675,0.11631775,0.6758423000000001,1
2391,9.243300999999999,0.12469482400000001,0.6495055999999999,1
2392,9.232529,0.11392212,0.70817566,1
2393,9.213379,0.08758545,0.73091125,1
2394,9.207397,0.04447937,0.68782043,1
2395,9.234924000000001,0.02293396,0.70217896,1
2396,9.232529,0.009765625,0.72612,1
2397,9.226547,-0.071640015,0.73928833,1
2398,9.257675,-0.16381836,0.7368927,1
2399,9.272034,-0.17459106,0.8302765,1
2400,9.274429,-0.06086731,0.8195038,1
2401,9.261261,0.03970337,0.7979584,1
2402,9.268448,0.12588501,0.6961975,1
2403,9.245697,0.105529785,0.60162354,1
2404,9.178664999999999,0.10314941400000001,0.5489501999999999,1
2405,9.29837,0.11152649,0.48789978,1
2406,9.383362,0.12709045,0.39453125,1
2407,9.31633,0.04208374,0.3705902,1
2408,9.347458,-0.033325195,0.42445374,1
2409,9.325911999999999,-0.071640015,0.49388123,1
2410,9.267242,-0.10874939,0.5453644,1
2411,9.233734,-0.09437561,0.5202179,1
2412,9.254074000000001,-0.028533936,0.5549469,1
2413,9.29718,0.031311035,0.6171875,1
2414,9.294785000000001,0.11631775,0.58366394,1
2415,9.243300999999999,0.1953125,0.53578186,1
2416,9.218169999999999,0.25038147,0.5956421,1
2417,9.196625,0.17855835,0.61120605,1
2418,9.240905999999999,0.09954834,0.60762024,1
2419,9.251678,0.079193115,0.65789795,1
2420,9.2708435,0.040893555,0.70578,1
2421,9.287598,-0.011779785,0.7333069000000001,1
2422,9.281616,-0.0105896,0.6602783,1
2423,9.246902,-0.0045928955,0.63394165,1
2424,9.23851,-0.08001709,0.6052246,1
2425,9.23851,-0.11114502,0.6052246,1
2426,9.208588,-0.078811646,0.5669098000000001,1
2427,9.226547,-0.059661865,0.56211853,1
2428,9.289992999999999,-0.09677124,0.58247375,1
2429,9.272034,-0.114730835,0.6136017,1
2430,9.251678,-0.15065002,0.6100005999999999,1
2431,9.233734,-0.1590271,0.60162354,1
2432,9.214569000000001,-0.14225769,0.64352417,1
2433,9.318726,-0.13148499,0.65789795,1
2434,9.288788,-0.14825439999999998,0.6279602,1
2435,9.197815,-0.100372314,0.61958313,1
2436,9.236130000000001,-0.10395813,0.6542969,1
2437,9.301956,-0.09677124,0.61479187,1
2438,9.242111,-0.13388062,0.58966064,1
2439,9.239716,-0.04170227,0.6961975,1
2440,9.25528,0.024139404,0.82429504,1
2441,9.294785000000001,0.038497925,0.8817444,1
2442,9.291183,0.03491211,0.8733673000000001,1
2443,9.254074000000001,0.036102295,0.8482360999999999,1
2444,9.210983,0.012161255,0.90449524,1
2445,9.23851,-0.02494812,0.8697815000000001,1
2446,9.236130000000001,-0.04170227,0.77041626,1
2447,9.232529,-0.11114502,0.765625,1
2448,9.288788,-0.11592102,0.8195038,1
2449,9.288788,-0.074035645,0.7428894,1
2450,9.2313385,-0.054870605,0.7249298000000001,1
2451,9.206192,-0.03213501,0.70936584,1
2452,9.214569000000001,-0.08480835,0.75006104,1
2453,9.25528,-0.15663147,0.7045746,1
2454,9.282805999999999,-0.16500854,0.67944336,1
2455,9.243300999999999,-0.17817688,0.73928833,1
2456,9.225342,-0.16381836,0.79196167,1
2457,9.232529,-0.1877594,0.8147125,1
2458,9.21936,-0.21289063,0.8338623,1
2459,9.225342,-0.22366333,0.8506316999999999,1
2460,9.178664999999999,-0.2320404,0.8625946,1
2461,9.250488,-0.20570374,0.8218994000000001,1
2462,9.300766000000001,-0.22964478,0.81710815,1
2463,9.313934,-0.1877594,0.79914856,1
2464,9.262466,-0.18057251,0.7345123,1
2465,9.199005,-0.1925354,0.7931670999999999,1
2466,9.227737,-0.14346313,0.8302765,1
2467,9.3701935,-0.16500854,0.7943573,1
2468,9.366608,-0.121917725,0.60162354,1
2469,9.284011999999999,-0.04170227,0.51065063,1
2470,9.291183,-0.006988525400000001,0.53578186,1
2471,9.207397,0.0013885498,0.5693054,1
2472,9.165497,-0.02734375,0.5884552,1
2473,9.195419000000001,-0.0728302,0.5585326999999999,1
2474,9.203796,-0.124313354,0.5585326999999999,1
2475,9.31633,-0.14585876,0.6171875,1
2476,9.329498,-0.078811646,0.686615,1
2477,9.293579,-0.05368042,0.7728119000000001,1
2478,9.260071,-0.040512085,0.8039398,1
2479,9.23851,-0.02973938,0.8314666999999999,1
2480,9.23851,-0.042907715,0.7752074999999999,1
2481,9.207397,-0.08480835,0.8195038,1
2482,9.222961,-0.112335205,0.8254851999999999,1
2483,9.240905999999999,-0.07522583,0.86380005,1
2484,9.266052,-0.12669373,0.8949127,1
2485,9.25647,-0.17459106,0.87815857,1
2486,9.224152,-0.14225769,0.87815857,1
2487,9.222961,-0.17459106,0.9009094000000001,1
2488,9.193024000000001,-0.14944458,0.9451904000000001,1
2489,9.227737,-0.18536377,0.89012146,1
2490,9.248092999999999,-0.15782166,0.8530120999999999,1
2491,9.248092999999999,-0.13029480000000002,0.87934875,1
2492,9.214569000000001,-0.114730835,0.9116820999999999,1
2493,9.178664999999999,-0.15065002,0.92962646,1
2494,9.171478,-0.15065002,0.923645,1
2495,9.207397,-0.16500854,0.9212494000000001,1
2496,9.205002,-0.1925354,0.87934875,1
2497,9.233734,-0.26316833,0.9344177,1
2498,9.336685000000001,-0.22964478,0.8805542,1
2499,9.311539,-0.25120544,0.74168396,1
2500,9.262466,-0.27035522,0.78479004,1
2501,9.251678,-0.24281311,0.83984375,1
2502,9.209793,-0.20451355,0.9344177,1
2503,9.2313385,-0.23443604,0.89372253,1
2504,9.23851,-0.24880981,0.8530120999999999,1
2505,9.248092999999999,-0.25239563,0.8997040000000001,1
2506,9.263657,-0.33380127,0.8601989999999999,1
2507,9.248092999999999,-0.3649292,0.8302765,1
2508,9.29837,-0.36372375,0.8314666999999999,1
2509,9.267242,-0.34338379999999996,0.8841399999999999,1
2510,9.287598,-0.34457397,0.8111267,1
2511,9.2708435,-0.34457397,0.7285156,1
2512,9.240905999999999,-0.35295105,0.7357024999999999,1
2513,9.251678,-0.3768921,0.6950073,1
2514,9.264847,-0.43077087,0.7117614999999999,1
2515,9.288788,-0.42956543,0.77041626,1
2516,9.284011999999999,-0.4343567,0.78956604,1
2517,9.269638,-0.40203857,0.76322937,1
2518,9.2708435,-0.42118835,0.74887085,1
2519,9.250488,-0.4092102,0.78956604,1
2520,9.23851,-0.39485168,0.74887085,1
2521,9.227737,-0.38526917,0.69740295,1
2522,9.189438,-0.3541565,0.6710663,1
2523,9.196625,-0.29788208,0.57528687,1
2524,9.224152,-0.24043274,0.5872649999999999,1
2525,9.220566,-0.26556396,0.6351471,1
2526,9.303162,-0.32781982,0.6495055999999999,1
2527,9.365402,-0.4439392,0.7117614999999999,1
2528,9.439636,-0.5432892,0.8039398,1
2529,9.3701935,-0.54808044,0.70936584,1
2530,9.226547,-0.50857544,0.6938019,1
2531,9.2313385,-0.46308900000000003,0.75605774,1
2532,9.220566,-0.42477417,0.7368927,1
2533,9.187042,-0.41639709999999996,0.6542969,1
2534,9.187042,-0.39964294,0.60162354,1
2535,9.17746,-0.38049316,0.63035583,1
2536,9.25647,-0.32063293,0.62916565,1
2537,9.3893585,-0.22726439999999998,0.6171875,1
2538,9.3701935,-0.21289063,0.60162354,1
2539,9.313934,-0.107543945,0.58366394,1
2540,9.312744,-0.045303345,0.5046692,1
2541,9.286407,0.01574707,0.40769958,1
2542,9.267242,0.076812744,0.41726685,1
2543,9.278015,0.069625854,0.45439148,1
2544,9.299576,0.0049743652,0.47712708,1
2545,9.236130000000001,-0.105148315,0.5010680999999999,1
2546,9.228943,-0.24043274,0.53100586,1
2547,9.21936,-0.2966919,0.51304626,1
2548,9.248092999999999,-0.31105042,0.46516418,1
2549,9.246902,-0.28352356,0.4040985,1
2550,9.281616,-0.22964478,0.2640381,1
2551,9.351044,-0.20451355,0.26045227,1
2552,9.303162,-0.16021729,0.31193542,1
2553,9.185837,-0.13148499,0.45439148,1
2554,9.210983,-0.17698670000000002,0.71894836,1
2555,9.206192,-0.210495,0.8925171000000001,1
2556,9.245697,-0.17578125,0.9020995999999999,1
2557,9.3103485,-0.1590271,0.8805542,1
2558,9.432449,-0.05847168,0.75245667,1
2559,9.351044,0.012161255,0.56211853,1
2560,9.250488,-0.028533936,0.5274048000000001,1
2561,9.152328500000001,-0.066848755,0.59324646,1
2562,9.109222,-0.12310791,0.6351471,1
2563,9.142746,-0.10874939,0.58366394,1
2564,9.228943,-0.09916687,0.45199585,1
2565,9.321121,-0.12908936,0.31791687,1
2566,9.392944,-0.10874939,0.36221313,1
2567,9.425262,-0.07043457,0.38615417,1
2568,9.392944,0.05645752,0.27960205,1
2569,9.355835,0.0049743652,0.32510376,1
2570,9.254074000000001,-0.0045928955,0.38375854,1
2571,9.151123,-0.06803894,0.50704956,1
2572,9.143951,-0.13508606,0.60401917,1
2573,9.199005,-0.18415833,0.6818390000000001,1
2574,9.3103485,-0.24043274,0.7428894,1
2575,9.343857,-0.25120544,0.686615,1
2576,9.284011999999999,-0.18296814,0.6650696,1
2577,9.266052,-0.12550354,0.62197876,1
2578,9.304352,-0.093185425,0.6531066999999999,1
2579,9.31633,-0.081207275,0.5884552,1
2580,9.267242,-0.08241272,0.57289124,1
2581,9.197815,-0.114730835,0.5381775,1
2582,9.207397,-0.109939575,0.47473145,1
2583,9.2708435,-0.11114502,0.32510376,1
2584,9.274429,-0.07641601599999999,0.27243042,1
2585,9.216965,-0.016571045,0.27122498,1
2586,9.196625,0.024139404,0.350235,1
2587,9.348647999999999,0.03730774,0.38136292,1
2588,9.311539,-0.028533936,0.4005127,1
2589,9.333084,-0.021362305,0.40888977,1
2590,9.351044,-0.0728302,0.53219604,1
2591,9.313934,0.00019836426,0.6531066999999999,1
2592,9.2313385,0.014556885,0.6638794,1
2593,9.188232000000001,0.028915405,0.62916565,1
2594,9.199005,-0.05607605,0.6159973000000001,1
2595,9.280411,-0.12789917,0.5980376999999999,1
2596,9.281616,-0.13748169,0.62197876,1
2597,9.284011999999999,-0.12669373,0.64112854,1
2598,9.249298,-0.23085022,0.69740295,1
2599,9.264847,-0.26437378,0.74887085,1
2600,9.25647,-0.26675415,0.7153473000000001,1
2601,9.263657,-0.25598145,0.69740295,1
2602,9.257675,-0.2787323,0.6363373000000001,1
2603,9.287598,-0.29190063,0.60762024,1
2604,9.267242,-0.27035522,0.6279602,1
2605,9.23851,-0.2320404,0.642334,1
2606,9.225342,-0.17459106,0.65190125,1
2607,9.228943,-0.16979979999999997,0.602829,1
2608,9.25647,-0.15542603,0.6531066999999999,1
2609,9.266052,-0.12071228,0.62916565,1
2610,9.262466,-0.11352539,0.67344666,1
2611,9.25647,-0.07762146,0.63993835,1
2612,9.232529,-0.069244385,0.6997833000000001,1
2613,9.257675,-0.02255249,0.75605774,1
2614,9.262466,-0.06803894,0.7069701999999999,1
2615,9.225342,-0.06086731,0.6542969,1
2616,9.224152,-0.057266235,0.7177429,1
2617,9.300766000000001,-0.08001709,0.73809814,1
2618,9.239716,-0.09677124,0.5884552,1
2619,9.243300999999999,-0.10635376,0.6459198,1
2620,9.251678,-0.13627625,0.7620392,1
2621,9.222961,-0.16261292,0.7225342,1
2622,9.252884,-0.13748169,0.65789795,1
2623,9.226547,-0.14944458,0.63275146,1
2624,9.242111,-0.11352539,0.6267699999999999,1
2625,9.264847,-0.10635376,0.65190125,1
2626,9.257675,-0.095581055,0.65071106,1
2627,9.233734,-0.13748169,0.6207885999999999,1
2628,9.2313385,-0.13388062,0.6483154000000001,1
2629,9.278015,-0.1590271,0.6088104,1
2630,9.273239,-0.14825439999999998,0.63993835,1
2631,9.266052,-0.14346313,0.5956421,1
2632,9.266052,-0.15184021,0.6387329,1
2633,9.251678,-0.09677124,0.66148376,1
2634,9.250488,-0.09916687,0.6961975,1
2635,9.208588,-0.109939575,0.7033844,1
2636,9.266052,-0.13029480000000002,0.7225342,1
2637,9.306747,-0.17578125,0.666275,1
2638,9.294785000000001,-0.14346313,0.6351471,1
2639,9.262466,-0.13388062,0.6770477,1
2640,9.266052,-0.117126465,0.6674651999999999,1
2641,9.289992999999999,-0.097976685,0.65190125,1
2642,9.276825,-0.13029480000000002,0.6279602,1
2643,9.282805999999999,-0.13029480000000002,0.62316895,1
2644,9.262466,-0.09197998,0.58366394,1
2645,9.261261,-0.09916687,0.61239624,1
2646,9.209793,-0.093185425,0.5453644,1
2647,9.252884,-0.13269043,0.6243744000000001,1
2648,9.348647999999999,-0.12789917,0.5992279,1
2649,9.286407,-0.119522095,0.52142334,1
2650,9.249298,-0.08001709,0.6088104,1
2651,9.272034,-0.088394165,0.63394165,1
2652,9.245697,-0.09916687,0.6387329,1
2653,9.250488,-0.093185425,0.6088104,1
2654,9.25647,-0.11352539,0.54655457,1
2655,9.25647,-0.085998535,0.5274048000000001,1
2656,9.2708435,-0.09437561,0.5262146,1
2657,9.275619500000001,-0.071640015,0.5585326999999999,1
2658,9.292389,-0.109939575,0.5154419,1
2659,9.276825,-0.09677124,0.52381897,1
2660,9.258865,-0.057266235,0.53338623,1
2661,9.252884,-0.026138306,0.5058594,1
2662,9.21936,-0.062057495,0.5597229,1
2663,9.279221000000001,-0.090789795,0.5693054,1
2664,9.285202,-0.112335205,0.6052246,1
2665,9.295975,-0.1015625,0.6255646,1
2666,9.225342,-0.14944458,0.61120605,1
2667,9.239716,-0.14225769,0.6064148,1
2668,9.261261,-0.16619873,0.5669098000000001,1
2669,9.287598,-0.16619873,0.5740967,1
2670,9.276825,-0.18176270000000003,0.6064148,1
2671,9.286407,-0.18176270000000003,0.6363373000000001,1
2672,9.293579,-0.17817688,0.5704956,1
2673,9.25528,-0.16381836,0.6279602,1
2674,9.236130000000001,-0.16979979999999997,0.6267699999999999,1
2675,9.281616,-0.16500854,0.60762024,1
2676,9.282805999999999,-0.117126465,0.57170105,1
2677,9.224152,-0.10635376,0.5956421,1
2678,9.312744,-0.114730835,0.602829,1
2679,9.33548,-0.17459106,0.5573273,1
2680,9.257675,-0.19613647,0.57170105,1
2681,9.200211,-0.13508606,0.69859314,1
2682,9.232529,-0.14704895,0.77879333,1
2683,9.227737,-0.13748169,0.7859802,1
2684,9.232529,-0.13388062,0.6890106,1
2685,9.232529,-0.16500854,0.66867065,1
2686,9.25647,-0.12550354,0.6136017,1
2687,9.251678,-0.13029480000000002,0.5944519,1
2688,9.272034,-0.11592102,0.6495055999999999,1
2689,9.278015,-0.12669373,0.6710663,1
2690,9.284011999999999,-0.11831665,0.65789795,1
2691,9.23732,-0.12310791,0.5956421,1
2692,9.267242,-0.074035645,0.6159973000000001,1
2693,9.239716,-0.09437561,0.6159973000000001,1
2694,9.261261,-0.10395813,0.64112854,1
2695,9.279221000000001,-0.13748169,0.6459198,1
2696,9.268448,-0.13508606,0.6375427,1
2697,9.260071,-0.114730835,0.67225647,1
2698,9.260071,-0.08241272,0.6363373000000001,1
2699,9.257675,-0.062057495,0.6267699999999999,1
2700,9.264847,-0.07641601599999999,0.69140625,1
2701,9.258865,-0.08241272,0.6351471,1
2702,9.293579,-0.06803894,0.66267395,1
2703,9.29718,-0.047698975,0.65789795,1
2704,9.225342,-0.06564331,0.6495055999999999,1
2705,9.197815,-0.021362305,0.63394165,1
2706,9.288788,-0.06803894,0.602829,1
2707,9.29718,-0.100372314,0.5980376999999999,1
2708,9.234924000000001,-0.15065002,0.61479187,1
2709,9.228943,-0.12310791,0.71655273,1
2710,9.340271000000001,-0.14106749999999998,0.66867065,1
2711,9.29718,-0.13148499,0.58247375,1
2712,9.2313385,-0.13986206,0.63993835,1
2713,9.248092999999999,-0.11831665,0.72013855,1
2714,9.250488,-0.14585876,0.6997833000000001,1
2715,9.227737,-0.13269043,0.68063354,1
2716,9.250488,-0.13627625,0.66148376,1
2717,9.234924000000001,-0.12908936,0.6842345999999999,1
2718,9.260071,-0.12310791,0.66148376,1
2719,9.286407,-0.11114502,0.6566925,1
2720,9.286407,-0.13269043,0.6375427,1
2721,9.274429,-0.107543945,0.6171875,1
2722,9.263657,-0.105148315,0.63394165,1
2723,9.233734,-0.109939575,0.61479187,1
2724,9.240905999999999,-0.10874939,0.6471100000000001,1
2725,9.249298,-0.13627625,0.66148376,1
2726,9.292389,-0.08720398,0.6483154000000001,1
2727,9.25528,-0.13148499,0.6961975,1
2728,9.262466,-0.13986206,0.69859314,1
2729,9.222961,-0.14225769,0.71894836,1
2730,9.25647,-0.11592102,0.6842345999999999,1
2731,9.269638,-0.16021729,0.67944336,1
2732,9.260071,-0.13029480000000002,0.69021606,1
2733,9.257675,-0.13388062,0.67225647,1
2734,9.258865,-0.09916687,0.6818390000000001,1
2735,9.254074000000001,-0.12310791,0.65190125,1
2736,9.272034,-0.12071228,0.6483154000000001,1
2737,9.239716,-0.13148499,0.67344666,1
2738,9.226547,-0.12310791,0.70817566,1
2739,9.292389,-0.13748169,0.6566925,1
2740,9.276825,-0.13627625,0.62916565,1
2741,9.193024000000001,-0.13986206,0.68782043,1
2742,9.306747,-0.14704895,0.7572479,1
2743,9.327103,-0.107543945,0.5968323,1
2744,9.239716,-0.15303039999999998,0.5884552,1
2745,9.234924000000001,-0.124313354,0.72013855,1
2746,9.25528,-0.11352539,0.71655273,1
2747,9.249298,-0.13986206,0.6710663,1
2748,9.224152,-0.11592102,0.6447295999999999,1
2749,9.250488,-0.12789917,0.6136017,1
2750,9.239716,-0.121917725,0.70578,1
2751,9.258865,-0.10395813,0.6758423000000001,1
2752,9.269638,-0.109939575,0.65789795,1
2753,9.286407,-0.078811646,0.65789795,1
2754,9.289992999999999,-0.09197998,0.66986084,1
2755,9.269638,-0.09677124,0.6710663,1
2756,9.267242,-0.10635376,0.642334,1
2757,9.267242,-0.095581055,0.6566925,1
2758,9.245697,-0.114730835,0.67225647,1
2759,9.266052,-0.066848755,0.6566925,1
2760,9.236130000000001,-0.062057495,0.6997833000000001,1
2761,9.257675,-0.10395813,0.66267395,1
2762,9.268448,-0.121917725,0.6746521,1
2763,9.261261,-0.14346313,0.63275146,1
2764,9.268448,-0.13269043,0.6267699999999999,1
2765,9.284011999999999,-0.13986206,0.66267395,1
2766,9.304352,-0.124313354,0.6064148,1
2767,9.299576,-0.16142273,0.62316895,1
2768,9.282805999999999,-0.12789917,0.54655457,1
2769,9.202606,-0.15065002,0.51423645,1
2770,9.183456,-0.08480835,0.52500916,1
2771,9.325911999999999,-0.09916687,0.5298004,1
2772,9.341461,-0.074035645,0.45558167,1
2773,9.261261,-0.09916687,0.4986725,1
2774,9.242111,-0.10395813,0.62316895,1
2775,9.353439,-0.042907715,0.6674651999999999,1
2776,9.288788,-0.04888916,0.5956421,1
2777,9.234924000000001,-0.093185425,0.6758423000000001,1
2778,9.276825,-0.03453064,0.6710663,1
2779,9.248092999999999,0.036102295,0.7033844,1
2780,9.188232000000001,0.122299194,0.6758423000000001,1
2781,9.118805,0.17497253,0.77760315,1
2782,9.160706,0.11869812,0.65908813,1
2783,9.257675,-0.02015686,0.6459198,1
2784,9.300766000000001,-0.074035645,0.7177429,1
2785,9.274429,-0.057266235,0.8374634,1
2786,9.248092999999999,0.03970337,0.74768066,1
2787,9.169083,-0.030929565,0.7345123,1
2788,9.165497,-0.016571045,0.72612,1
2789,9.222961,-0.05607605,0.7117614999999999,1
2790,9.268448,-0.13627625,0.65071106,1
2791,9.279221000000001,-0.1590271,0.61239624,1
2792,9.279221000000001,-0.31344604,0.5776825,1
2793,9.266052,-0.26316833,0.55255127,1
2794,9.251678,-0.10635376,0.64112854,1
2795,9.243300999999999,-0.02255249,0.71295166,1
2796,9.279221000000001,-0.0045928955,0.7692260999999999,1
2797,9.300766000000001,-0.105148315,0.72372437,1
2798,9.312744,-0.14346313,0.6746521,1
2799,9.300766000000001,-0.22366333,0.6890106,1
2800,9.218169999999999,-0.2607727,0.74168396,1
2801,9.195419000000001,-0.24641418,0.78956604,1
2802,9.23732,-0.22605896,0.8338623,1
2803,9.273239,-0.18655396,0.7285156,1
2804,9.227737,-0.17698670000000002,0.60762024,1
2805,9.202606,-0.16381836,0.56211853,1
2806,9.386963,-0.25,0.54776,1
2807,9.384567,-0.31704712,0.47712708,1
2808,9.279221000000001,-0.34217834,0.5166321,1
2809,9.29837,-0.2787323,0.6387329,1
2810,9.31633,-0.28710938,0.66867065,1
2811,9.273239,-0.29429626,0.61239624,1
2812,9.215775,-0.25479126,0.602829,1
2813,9.225342,-0.25479126,0.61120605,1
2814,9.25647,-0.36132813,0.6088104,1
2815,9.305557,-0.35774229999999996,0.64112854,1
2816,9.258865,-0.39724729999999997,0.70936584,1
2817,9.262466,-0.40203857,0.7225342,1
2818,9.252884,-0.4092102,0.7512665,1
2819,9.287598,-0.41041565,0.74887085,1
2820,9.280411,-0.36013794,0.75006104,1
2821,9.282805999999999,-0.36732483,0.7440796,1
2822,9.272034,-0.38287354,0.80033875,1
2823,9.262466,-0.39245605,0.78956604,1
2824,9.202606,-0.40203857,0.79196167,1
2825,9.227737,-0.39485168,0.77879333,1
2826,9.239716,-0.4343567,0.82907104,1
2827,9.249298,-0.42597959999999996,0.8027344,1
2828,9.269638,-0.39964294,0.7931670999999999,1
2829,9.272034,-0.39006042,0.7752074999999999,1
2830,9.260071,-0.3876648,0.7859802,1
2831,9.244507,-0.35774229999999996,0.7512665,1
2832,9.196625,-0.30148315,0.75964355,1
2833,9.220566,-0.25479126,0.8302765,1
2834,9.244507,-0.23922729999999998,0.86738586,1
2835,9.31752,-0.20930481,0.82788086,1
2836,9.242111,-0.25120544,0.79196167,1
2837,9.292389,-0.26914978,0.8302765,1
2838,9.301956,-0.21170044,0.7321167,1
2839,9.195419000000001,-0.18655396,0.49748230000000004,1
2840,9.2313385,-0.20330810000000002,0.58366394,1
2841,9.275619500000001,-0.22845459,0.69021606,1
2842,9.25647,-0.24162292,0.7141571,1
2843,9.25528,-0.29190063,0.70217896,1
2844,9.233734,-0.3481598,0.70817566,1
2845,9.194229,-0.41879272,0.76683044,1
2846,9.243300999999999,-0.45829773,0.7967529000000001,1
2847,9.278015,-0.41760254,0.7907715,1
2848,9.264847,-0.41520690000000005,0.75845337,1
2849,9.252884,-0.37330627,0.7799988,1
2850,9.224152,-0.39006042,0.8374634,1
2851,9.21936,-0.37330627,0.8159026999999999,1
2852,9.245697,-0.36372375,0.7979584,1
2853,9.300766000000001,-0.37330627,0.8039398,1
2854,9.29718,-0.36611938,0.6842345999999999,1
2855,9.304352,-0.31704712,0.6531066999999999,1
2856,9.287598,-0.2799225,0.63035583,1
2857,9.251678,-0.29309082,0.56811523,1
2858,9.243300999999999,-0.28471375,0.58128357,1
2859,9.226547,-0.2715454,0.5944519,1
2860,9.242111,-0.33738708,0.66867065,1
2861,9.279221000000001,-0.30267334,0.6926116999999999,1
2862,9.280411,-0.3002777,0.7644348000000001,1
2863,9.301956,-0.29429626,0.70217896,1
2864,9.280411,-0.29548645,0.71055603,1
2865,9.23851,-0.28231812,0.7548523,1
2866,9.269638,-0.30148315,0.74768066,1
2867,9.23851,-0.30865479999999995,0.71655273,1
2868,9.210983,-0.26197815,0.7117614999999999,1
2869,9.295975,-0.26675415,0.77041626,1
2870,9.342667,-0.27275085,0.62197876,1
2871,9.23851,-0.25,0.5585326999999999,1
2872,9.263657,-0.21768188,0.63275146,1
2873,9.254074000000001,-0.20211792,0.6938019,1
2874,9.226547,-0.1877594,0.65789795,1
2875,9.210983,-0.19613647,0.6279602,1
2876,9.251678,-0.14106749999999998,0.61239624,1
2877,9.25647,-0.19853210000000002,0.6088104,1
2878,9.286407,-0.20930481,0.6447295999999999,1
2879,9.266052,-0.2320404,0.6447295999999999,1
2880,9.25647,-0.25120544,0.6638794,1
2881,9.293579,-0.23683167,0.6961975,1
2882,9.251678,-0.25479126,0.65908813,1
2883,9.226547,-0.28112793,0.6375427,1
2884,9.221756,-0.2715454,0.7177429,1
2885,9.273239,-0.24880981,0.7069701999999999,1
2886,9.281616,-0.28112793,0.7177429,1
