,AccX[m/s^2],AccY[m/s^2],AccZ[m/s^2],label
0,8.115631,-3.1769104,-1.0240326,1
1,8.03064,-2.5592040000000003,-0.7415161,1
2,9.009872,-2.4730225,-0.5224457,1
3,9.152328500000001,-3.03685,-0.6086425999999999,1
4,7.9264984,-2.4095763999999997,-0.9186859,1
5,8.576523,-0.6079406999999999,0.7859802,1
6,8.027054,-4.41951,-4.8918610000000005,1
7,8.847061,-2.5316772000000003,-0.47216797,1
8,9.644333,-2.190506,-2.1924132999999997,1
9,8.774047999999999,-2.2719116,-1.7327118000000001,1
10,8.267669999999999,-2.3592987,-1.6010437,1
11,8.772842,-1.8888397000000001,-1.697998,1
12,9.115219,-1.6266631999999999,-1.9769287,1
13,7.973175,-1.9762268,-2.8388367000000003,1
14,9.262466,-2.7136383,-2.7586365,1
15,9.516250999999999,-2.1306458,-2.939392,1
16,10.903687,-2.5113220000000003,-2.915451,1
17,8.095291,-1.7020874,-3.3511963,1
18,12.700531,-2.9291077000000003,-2.79216,1
19,7.332733,-0.9060210999999999,-3.0782623,1
20,8.0905,-1.1190948,-2.7346953999999997,1
21,8.047409,1.0835723999999998,-2.8651732999999995,1
22,9.431244,-1.9666443,-4.86792,1
23,8.475967,-0.5827941999999999,-4.5423126,1
24,9.309142999999999,-0.6043396,-2.4701385,1
25,9.580886999999999,0.069625854,-3.6121673999999997,1
26,8.667496,1.0763855,-3.3787384,1
27,9.6862335,1.4833983999999998,-2.5934296000000003,1
28,10.550537,0.9171753,-2.115799,1
29,9.659897,-0.042907715,-2.5587158,1
30,9.829880000000001,-0.5636444,-4.11734,1
31,10.119583,-0.7156677,-3.2422638,1
32,9.115219,0.03730774,-3.2003632,1
33,8.861435,0.51135254,-1.8931273999999998,1
34,8.159927,0.9674530000000001,-3.4242248999999996,1
35,9.439636,-0.05368042,0.58128357,1
36,6.185912999999999,0.63105774,-4.35318,1
37,7.901352,0.36650085,-2.7406769,1
38,8.414916999999999,0.16778564,-3.2985230000000003,1
39,8.757278,0.44192505,-3.8144836000000004,1
40,9.111618,0.7447815,-4.105377,1
41,8.574127,1.1841278,-3.903061,1
42,7.8127747,1.4726257,-3.425415,1
43,7.0334625,1.4367065,-3.5355529999999997,1
44,6.826355,1.2739105,-3.887497,1
45,6.7341766000000005,1.2870788999999998,-4.031158400000001,1
46,7.400970500000001,1.2415923999999998,-4.1460724,1
47,7.7026367,1.2751006999999999,-4.672806,1
48,8.03064,1.477417,-5.3300019999999995,1
49,7.660736,1.6174773999999998,-5.294098,1
50,7.3028107,1.4786072000000001,-5.0845947,1
51,6.3104095000000004,1.062027,-4.4226074,1
52,5.9429016,0.74598694,-4.4297943,1
53,5.495178,0.58078,-4.234665000000001,1
54,5.176758,0.57240295,-4.234665000000001,1
55,4.924164,0.6238861,-4.579422,1
56,5.018738,0.6286621,-4.873916599999999,1
57,5.2545624,0.6131134,-5.3922577,1
58,5.027115,0.5448761,-6.388244599999999,1
59,5.097748,0.57958984,-6.057846,1
60,6.038666,0.62028503,-5.067840599999999,1
61,7.299209599999999,0.28271484,-4.799698,1
62,7.130417,0.013366699,-5.5406949999999995,1
63,6.2038727,0.20610046,-5.7585754,1
64,4.9696503,1.1841278,-5.170791599999999,1
65,5.4293365,0.9111786000000001,-4.551895,1
66,6.849106,-0.42237854,-5.67836,1
67,8.1527405,-1.7032776,-7.0203093999999995,1
68,8.400542999999999,-1.7523651000000002,-7.3435364000000005,1
69,9.178664999999999,-0.6917267,-6.6803436000000005,1
70,7.394989,1.7048645,-6.5702057,1
71,6.768890400000001,2.2471466,-6.853912400000001,1
72,6.298431400000001,1.7108459999999999,-7.581756599999999,1
73,6.473221,1.0009613000000002,-7.855896,1
74,6.5558167,1.0680083999999999,-7.8139954,1
75,7.635605,1.2128601,-6.8515167,1
76,7.2704773000000005,1.106308,-7.0035553,1
77,7.2034454,0.7424010999999999,-6.789275999999999,1
78,7.7732697,0.48262024,-5.772933999999999,1
79,8.126403999999999,0.5855713,-6.1272736,1
80,7.969589,1.114685,-7.2621307,1
81,8.200638,1.3960114,-7.55542,1
82,8.070145,1.4965667999999999,-7.597320599999999,1
83,7.7182007,1.2942505,-6.856308,1
84,7.209427000000001,1.0045624,-5.647232,1
85,7.1160583,0.62986755,-5.0666504,1
86,7.566161999999999,0.75556946,-5.250992,1
87,8.264084,1.0680083999999999,-5.1504364,1
88,9.705383,1.374466,-5.143265,1
89,10.965927,1.1925048999999999,-5.988418599999999,1
90,12.556885000000001,0.6933136,-6.3559265,1
91,11.442383,1.3840332,-6.1033325,1
92,11.020996,1.1673584,-6.25058,1
93,10.969528,1.1290588,-4.9445343,1
94,10.36618,0.7591553000000001,-4.5339355,1
95,9.600037,0.58917236,-4.022766000000001,1
96,8.826721000000001,0.14384460000000002,-3.4613342000000005,1
97,7.711014,-0.25598145,-2.5886536,1
98,7.2501373,-0.38049316,-1.7015991000000001,1
99,7.485962,-0.36372375,-1.610611,1
100,8.144363,-0.24043274,-1.6704712,1
101,8.443649,-0.04888916,-2.0044556,1
102,9.141556,-0.16261292,-2.4449919999999996,1
103,9.47435,-0.32302856,-2.9250336,1
104,9.681442,-0.30267334,-2.8364409999999998,1
105,10.135147,-0.03691101,-2.2450714,1
106,10.177048,0.23362732,-1.9206696,1
107,9.698196000000001,0.18814087,-1.8021544999999999,1
108,8.7417145,-0.15423584,-1.5459747,1
109,9.023041000000001,-0.35653687,-1.0515747,1
110,9.482727,-0.29788208,-0.6337738,1
111,9.390549,-0.12908936,-0.5535736,1
112,9.122391,-0.11114502,-0.535614,1
113,9.443222,-0.085998535,-0.39915466,1
114,9.439636,-0.04888916,-0.7343445,1
115,9.597641000000001,0.093566895,-0.5715332,1
116,9.694611,0.30784607,-0.24711609,1
117,9.853821,-0.07043457,-0.5607605,1
118,8.774047999999999,-0.062057495,-0.60743713,1
119,8.930862,0.17616272,-1.3388672,1
120,9.07811,0.31503296,-1.6560974,1
121,9.485123,0.45149229999999996,-1.7111664,1
122,9.612015,0.5747985999999999,-1.5531616000000001,1
123,8.453217,0.9710388000000001,-0.9246825999999999,1
124,7.1483765,0.7256316999999999,-1.2239532,1
125,8.1707,0.37010193,-0.50808716,1
126,8.887772,0.052871704000000005,0.17306519,1
127,10.094437,0.20968628,0.44960022,1
128,9.967545,0.42396545,0.38615417,1
129,9.342667,0.67056274,-0.09986877400000001,1
130,8.730942,0.69929504,0.18025208,1
131,8.542999,0.62986755,0.7069701999999999,1
132,8.344284,0.86808777,0.87457275,1
133,8.141967999999999,0.8704834000000001,0.7716217,1
134,8.448425,0.9782257,0.19581604,1
135,8.802764999999999,0.9399109,0.04258728,1
136,9.264847,0.4012146,-0.0053100586,1
137,9.679047,0.2192688,0.41607666,1
138,9.410903999999999,0.38327026,0.8554076999999999,1
139,8.922485,0.41319275,1.2049713,1
140,8.479553,0.26594543,1.3486176,1
141,8.572922,-0.3002777,1.5233917,1
142,8.6651,-0.67378235,0.80033875,1
143,8.783615,-0.27394104,0.25326538,1
144,10.544556,0.31263733,0.25086975,1
145,13.060867,0.80703735,-0.61582947,1
146,10.125565,2.284256,-1.6608886999999999,1
147,7.875015299999999,2.9618225,-0.9809418,1
148,7.9384613,1.4175568,0.255661,1
149,9.603638,0.06364441,0.9487915000000001,1
150,10.1171875,-0.22366333,0.45079040000000004,1
151,9.742493,0.5281066999999999,0.45439148,1
152,9.002686,0.93751526,-0.10107422,1
153,9.124786,0.79745483,-0.06515503,1
154,9.048172000000001,-0.14465332,-0.20042420000000002,1
155,9.802353,-0.46667479999999995,-0.69721985,1
156,9.793975999999999,-0.5361023,-0.23155212,1
157,9.483917,0.026535034,-0.026855469,1
158,9.264847,0.33418274,0.216156,1
159,9.609619,0.44432068,0.22932434,1
160,9.568924,0.20848083,0.46156309999999995,1
161,9.185837,-0.4092102,0.91645813,1
162,8.809952000000001,-0.6354675,1.0984192,1
163,8.771652,-0.7551727,0.9200591999999999,1
164,8.938049000000001,-0.61990356,0.5980376999999999,1
165,9.111618,-0.5923767,0.33946228,1
166,9.380966,-0.42237854,0.18981934,1
167,9.304352,-0.16859436,-0.2111969,1
168,9.030228,-0.45471190000000006,0.23890686,1
169,9.091277999999999,-0.71447754,0.3705902,1
170,9.498291,-0.66659546,0.5046692,1
171,9.359421000000001,-0.51934814,0.29756165,1
172,9.0182495,-0.7551727,0.5405731,1
173,9.075714,-0.89404297,0.62316895,1
174,9.242111,-0.80545044,0.71894836,1
175,9.313934,-0.6474456999999999,0.6555023,1
176,9.243300999999999,-0.5648346,0.9703369000000001,1
177,8.808762,-0.4056244,0.7069701999999999,1
178,8.754883,-0.14585876,0.760849,1
179,8.562149,-0.42956543,-0.16331482,1
180,9.328292999999999,-0.5851898,-0.8540496999999999,1
181,10.511032,-0.30506897,-0.70440674,1
182,10.454773,0.26115417,0.09286499,1
183,10.189011,0.30186462,0.53938293,1
184,9.110428,-0.012969971,0.74168396,1
185,8.746506,-0.43315125,1.236084,1
186,8.173096000000001,-0.54089355,1.4431915000000002,1
187,8.040222,-0.34576416,1.1834258999999998,1
188,8.98114,-0.06564331,0.91526794,1
189,9.103241,0.19651794,0.15270996,1
190,9.717361,0.2707367,0.60162354,1
191,9.215775,-0.24520874,0.34783936,1
192,9.853821,-0.13627625,0.39093018,1
193,9.566528,-0.21528625,0.40171814,1
194,9.365402,-0.38647459999999995,1.0541382,1
195,8.996704,-0.5923767,0.69021606,1
196,9.050568,-0.47865295,0.58247375,1
197,9.002686,-0.16619873,0.8841399999999999,1
198,9.221756,0.107925415,0.51304626,1
199,9.330688,0.29109192,0.9523773000000001,1
200,9.183456,-0.052474976,0.58966064,1
201,9.173874,0.09596252400000001,0.9918823,1
202,9.049377,-0.00819397,0.8877411000000001,1
203,9.092467999999998,0.02053833,1.0026549999999999,1
204,9.003891000000001,-0.0010070800999999999,0.9416046,1
205,9.232529,-0.15184021,0.8997040000000001,1
206,9.475539999999999,-0.47265625,0.7823944,1
207,9.428848,-0.28471375,0.9212494000000001,1
208,8.947617,-0.39006042,0.8949127,1
209,9.148727000000001,-0.30865479999999995,1.0960236,1
210,9.214569000000001,-0.16142273,0.74887085,1
211,9.501877,-0.097976685,0.19221497,1
212,9.341461,0.20610046,0.66148376,1
213,8.948822,0.25756836,1.0134277,1
214,9.076903999999999,-0.04888916,0.5872649999999999,1
215,9.507858,0.22883606,0.65190125,1
216,9.304352,0.5747985999999999,0.8554076999999999,1
217,8.835098,0.26834106,0.7333069000000001,1
218,9.082901,-0.20330810000000002,0.760849,1
219,9.442017,-0.25,0.90689087,1
220,9.542587,0.060043335,0.8590088,1
221,9.187042,0.30186462,0.78837585,1
222,9.002686,0.34255979999999997,0.78718567,1
223,8.873398,0.46945190000000003,0.9284363000000001,1
224,9.0793,0.34854126,0.77041626,1
225,9.260071,0.23960876,0.57888794,1
226,9.3498535,-0.02494812,0.55255127,1
227,9.495894999999999,-0.035720825,0.66267395,1
228,9.39534,0.20010376,0.7464751999999999,1
229,9.151123,0.3509369,0.6555023,1
230,8.672286999999999,0.22525024,0.5262146,1
231,9.029022,-0.08241272,0.64352417,1
232,9.805939,-0.2607727,0.7728119000000001,1
233,10.612793,-0.41160583,0.6531066999999999,1
234,10.772003,-0.60194397,0.21257019,1
235,10.0298,-0.71328735,0.04975891,1
236,8.917694000000001,-0.7156677,0.2915802,1
237,8.296402,-0.5349121,0.56092834,1
238,8.250916,-0.35653687,0.9176636,1
239,8.559753,-0.20690918,1.4228363000000002,1
240,8.594482000000001,0.052871704000000005,1.7987213,1
241,8.64476,0.33657837,2.0644836,1
242,8.876999,0.30665588,2.2488403,1
243,9.278015,-0.20570374,2.3529816,1
244,10.003464,-0.6151123000000001,2.0249786,1
245,9.218169999999999,-0.64863586,1.5952148000000002,1
246,8.493927000000001,-0.49421692,1.5174103,1
247,8.206619,-0.050079346,1.4707184,1
248,8.103667999999999,0.119903564,1.3270721,1
249,8.534622,0.117507935,1.646698,1
250,9.224152,-0.08001709,1.6215515,1
251,10.023819,-0.16859436,1.3593903,1
252,10.646301,-0.00819397,1.2265167,1
253,11.053314,-0.22605896,0.55374146,1
254,10.111206,-0.660614,0.30354309999999995,1
255,8.599258,-0.7264556999999999,0.88534546,1
256,7.667922999999999,-0.5792084,1.5198059,1
257,7.4189300000000005,-0.2212677,2.0740662,1
258,7.906142999999999,-0.36132813,1.8729552999999999,1
259,8.545395,-0.5648346,1.5641022,1
260,9.781998,-0.27394104,1.018219,1
261,10.518219,-0.040512085,0.5513458000000001,1
262,10.428436,-0.011779785,0.20298767,1
263,9.884949,-0.19972229,0.53578186,1
264,9.06015,-0.42716980000000004,1.231308,1
265,8.260483,-0.502594,1.4862823,1
266,8.131195,-0.44631958,1.4743195,1
267,8.769257000000001,-0.3649292,1.2241211,1
268,9.076903999999999,-0.50138855,1.0876465,1
269,9.153519000000001,-0.77194214,0.98709106,1
270,9.358231,-0.97424316,0.9990691999999999,1
271,9.3546295,-0.8964386000000001,0.99069214,1
272,9.128387,-0.94911194,1.0218048,1
273,8.982330000000001,-1.0388947,1.112793,1
274,9.230133,-0.98143005,1.0002594,1
275,9.594055,-0.6366729999999999,0.8123169,1
276,9.577301,-0.44033813,0.87576294,1
277,9.432449,-0.36611938,1.0086365,1
278,9.342667,-0.46907043,0.80633545,1
279,9.190628,-0.46308900000000003,0.5704956,1
280,9.154724,-0.4379425,0.40769958,1
281,9.066132000000001,-0.26556396,0.33348083,1
282,8.935654,-0.2859192,0.38015747,1
283,9.014664,-0.46907043,0.63394165,1
284,9.3498535,-0.58877563,0.6674651999999999,1
285,9.461182,-0.5528717,0.5190277,1
286,9.331894,-0.38526917,0.40649414,1
287,9.055359,-0.19972229,0.6315613,1
288,8.972763,-0.35176086,0.7716217,1
289,9.345061999999999,-0.14585876,1.1020203000000002,1
290,9.559341,-0.38647459999999995,0.99786377,1
291,9.610809,-0.100372314,0.6363373000000001,1
292,9.364212,-0.2212677,0.45916748,1
293,9.249298,-0.28831482,0.48910522,1
294,9.153519000000001,-0.4056244,0.6447295999999999,1
295,9.085281,-0.7084961,0.69859314,1
296,9.172684,-0.8353881999999999,0.5585326999999999,1
297,9.365402,-0.6582184,0.4040985,1
298,9.482727,-0.39006042,0.2640381,1
299,9.420471000000001,-0.05847168,0.017440796,1
300,9.358231,0.15342712,0.060531615999999996,1
301,9.37738,0.23721313,0.16468811,1
302,9.280411,0.16299438,0.42086792,1
303,9.194229,-0.04170227,0.5657196,1
304,9.251678,-0.26316833,0.6890106,1
305,9.279221000000001,-0.44154358,0.8147125,1
306,9.225342,-0.37091064,0.9715271000000001,1
307,9.178664999999999,-0.29071045,1.0649108999999999,1
308,9.074508999999999,-0.25479126,1.1929931999999999,1
309,9.066132000000001,-0.2607727,1.2013702,1
310,9.3103485,-0.43196106,1.0325775,1
311,9.293579,-0.65701294,0.99786377,1
312,9.295975,-0.8665161,0.92245483,1
313,9.33548,-0.8174286000000001,1.0074463,1
314,9.312744,-0.55885315,1.1295471000000001,1
315,8.963181,-0.289505,1.1882019,1
316,8.633987,-0.09437561,1.2492523000000002,1
317,8.477158,-0.102752686,1.4252319,1
318,8.704605,-0.17219543,1.4443816999999999,1
319,9.039795,-0.033325195,1.3462219,1
320,9.406113000000001,0.14863586,1.1846161,1
321,9.674255,0.15701294,1.0828552,1
322,9.625183,0.0049743652,0.98350525,1
323,9.477936,-0.19493103,0.9308318999999999,1
324,9.243300999999999,-0.20451355,1.0577239999999999,1
325,8.9991,-0.12071228,1.3055267,1
326,8.983536,0.13067627,1.5401611000000002,1
327,8.786011,0.4479065,1.6275482,1
328,8.572922,0.4084015,1.6000061,1
329,8.971558,0.15940857,1.5305786,1
330,9.166687,-0.057266235,1.246872,1
331,9.3893585,0.122299194,0.82429504,1
332,9.626373,0.57240295,0.8410492,1
333,9.333084,0.66578674,0.9775238000000002,1
334,9.100845,0.107925415,0.8985138,1
335,9.075714,-0.33499146,0.94400024,1
336,9.182250999999999,-0.05607605,1.2588348,1
337,8.813553,0.0049743652,1.5198059,1
338,8.939239500000001,0.15820313,0.99786377,1
339,9.075714,0.5305023,1.1175841999999998,1
340,9.005081,0.80822754,1.3881226,1
341,8.880585,0.55804443,1.433609,1
342,9.096069,-0.016571045,1.3294678,1
343,9.215775,-0.34098816,1.2049713,1
344,9.31752,-0.29071045,1.1295471000000001,1
345,9.195419000000001,-0.21647644,1.1463013000000002,1
346,9.042191,-0.06086731,1.1882019,1
347,8.868607,0.13186646,1.1894073,1
348,8.964386,0.2192688,1.2720032,1
349,9.0577545,0.24798584,1.2995299999999999,1
350,9.151123,0.013366699,1.0960236,1
351,9.292389,-0.18057251,0.85661316,1
352,9.440826,-0.16142273,1.0098419,1
353,9.390549,-0.057266235,1.1451111,1
354,9.268448,-0.06086731,1.0876465,1
355,9.477936,-0.28831482,0.8530120999999999,1
356,9.590469,-0.42118835,0.62916565,1
357,9.371399,-0.3002777,0.49627686,1
358,9.068527,-0.0010070800999999999,0.54296875,1
359,8.878189,0.17497253,0.8159026999999999,1
360,8.940445,0.36650085,0.9715271000000001,1
361,9.020645,0.28271484,1.0601196000000002,1
362,9.152328500000001,0.1618042,1.0720825,1
363,9.37619,0.083984375,0.939209,1
364,9.485123,-0.016571045,1.0158234,1
365,9.438431,-0.117126465,1.0637054,1
366,9.267242,-0.13986206,1.0158234,1
367,8.934448,-0.083602905,1.1415253,1
368,8.859039,-0.074035645,1.339035,1
369,8.97995,-0.1590271,1.4216461,1
370,9.163101,-0.17936707,1.4048767,1
371,9.261261,-0.12908936,1.3126984,1
372,9.250488,0.043289185,1.2480621,1
373,9.163101,0.17018127,1.1822205,1
374,9.115219,0.12588501,1.1570892,1
375,9.104446000000001,0.024139404,1.160675,1
376,9.15831,-0.030929565,1.1068115,1
377,9.288788,0.009765625,1.0349731,1
378,9.305557,0.07081604,0.9894867,1
379,9.361816000000001,0.081588745,0.90449524,1
380,9.397736,0.014556885,0.81710815,1
381,9.323516999999999,-0.102752686,0.7620392,1
382,9.096069,-0.2607727,0.92245483,1
383,9.044586,-0.25,1.0445556999999999,1
384,9.021835000000001,-0.16142273,1.1666565,1
385,9.07811,-0.114730835,1.2612305,1
386,9.103241,-0.10395813,1.2564392,1
387,9.129578,-0.07522583,1.2995299999999999,1
388,9.191833500000001,-0.00579834,1.3198853000000002,1
389,9.244507,0.08279419,1.3402405000000002,1
390,9.233734,0.17855835,1.2767944,1
391,9.183456,0.20370483,1.236084,1
392,9.116408999999999,0.17018127,1.2480621,1
393,9.025436000000001,0.15580750000000002,1.394104,1
394,9.087677000000001,0.09715271,1.3378448,1
395,9.160706,0.057647705,1.1989746000000001,1
396,9.127182000000001,0.033706665,1.1882019,1
397,9.115219,-0.11352539,1.2241211,1
398,9.108032000000001,-0.21768188,1.2229156,1
399,9.066132000000001,-0.18536377,1.2600403,1
400,9.080505,-0.109939575,1.2696075,1
401,9.074508999999999,-0.07522583,1.2660216999999998,1
402,9.133179,-0.06324768,1.2851715,1
403,9.166687,-0.05847168,1.2588348,1
404,9.194229,0.036102295,1.2815857,1
405,9.243300999999999,0.07800293,1.2348938,1
406,9.175064,0.10433959999999999,1.1882019,1
407,9.129578,0.11152649,1.1918030000000002,1
408,9.100845,0.1510315,1.1666565,1
409,9.051772999999999,0.19770813,1.1654663,1
410,9.07811,0.12948608,1.1941986,1
411,9.17627,-0.059661865,1.2384796,1
412,9.200211,-0.24520874,1.255249,1
413,9.145142,-0.30387878,1.2803802,1
414,9.110428,-0.23324585,1.3522034,1
415,9.076903999999999,-0.062057495,1.4623413,1
416,9.027832,0.100753784,1.4515686,1
417,9.111618,0.079193115,1.3545989999999999,1
418,9.257675,-0.02734375,1.207367,1
419,9.372589,-0.06324768,1.0481415,1
420,9.323516999999999,-0.10874939,0.9811095999999999,1
421,9.221756,-0.13269043,0.91885376,1
422,9.173874,-0.109939575,0.939209,1
423,9.161896,-0.050079346,0.978714,1
424,9.14035,0.028915405,0.85661316,1
425,9.0972595,0.02772522,0.8614044,1
426,9.187042,-0.0105896,0.9272461,1
427,9.243300999999999,-0.0010070800999999999,0.97273254,1
428,9.274429,0.043289185,1.0014648000000002,1
429,9.201400999999999,0.05885315,1.0397644,1
430,9.104446000000001,0.081588745,1.1044159,1
431,9.117614999999999,-0.00819397,1.0960236,1
432,9.166687,-0.02734375,1.1355286,1
433,9.169083,0.04808044400000001,1.1259613000000002,1
434,9.208588,0.1330719,1.1391296,1
435,9.216965,0.112716675,1.1103973,1
436,9.181061,0.06842041,1.0876465,1
437,9.137955,0.055252075,1.0768738000000002,1
438,9.114014,-0.03691101,1.0792694,1
439,9.151123,0.0037841796999999997,1.0768738000000002,1
440,9.13916,-0.03213501,1.0589142,1
441,9.167892,-0.05607605,1.0493469,1
442,9.200211,-0.05607605,1.0254059000000002,1
443,9.230133,0.0025787354,0.98350525,1
444,9.195419000000001,0.02293396,1.0122375,1
445,9.179855,0.09236145,1.0361786,1
446,9.142746,0.22883606,1.0206146,1
447,9.1128235,0.27313232,1.0565186000000002,1
448,9.157119999999999,0.23242188,1.0684966999999999,1
449,9.226547,0.115112305,1.0002594,1
450,9.184647,0.04447937,1.0158234,1
451,9.146347,0.008575439,1.0589142,1
452,9.137955,0.02293396,1.0517426,1
453,9.088882,-0.0045928955,1.0265961,1
454,9.096069,0.019348145,1.1103973,1
455,9.145142,0.03491211,1.1151886,1
456,9.210983,0.057647705,1.1032104,1
457,9.197815,0.09596252400000001,1.0996246,1
458,9.125992,0.08998108,1.0780792,1
459,9.122391,0.086380005,1.0625153,1
460,9.154724,0.064834595,1.0325775,1
461,9.124786,0.06124878,1.0828552,1
462,9.1128235,-0.02015686,1.0888518999999999,1
463,9.167892,-0.09197998,1.1391296,1
464,9.208588,-0.05368042,1.1546936,1
465,9.185837,-0.035720825,1.1319427,1
466,9.189438,-0.059661865,1.0637054,1
467,9.199005,-0.059661865,1.0014648000000002,1
468,9.197815,-0.064453125,0.97631836,1
469,9.166687,-0.062057495,0.9859009,1
470,9.104446000000001,-0.16859436,1.0445556999999999,1
471,9.108032000000001,-0.18176270000000003,1.0828552,1
472,9.109222,-0.13388062,1.0948334,1
473,9.196625,-0.064453125,1.1283569,1
474,9.191833500000001,-0.07522583,1.0792694,1
475,9.213379,0.021743774,1.0888518999999999,1
476,9.121201,0.021743774,1.073288,1
477,9.111618,0.040893555,1.1247559,1
478,9.07811,0.013366699,1.0661011,1
479,9.1128235,-0.021362305,1.152298,1
480,9.246902,-0.08958435,0.98350525,1
481,9.273239,-0.1015625,0.9176636,1
482,9.246902,-0.14225769,0.9751281999999999,1
483,9.23732,-0.26316833,0.9380188,1
484,9.23851,-0.34936523,0.89730835,1
485,9.218169999999999,-0.33259583,0.8697815000000001,1
486,9.197815,-0.25598145,0.7548523,1
487,9.191833500000001,-0.17098999,0.686615,1
488,9.220566,-0.14465332,0.7045746,1
489,9.2708435,-0.0440979,0.6770477,1
490,9.282805999999999,-0.02255249,0.6255646,1
491,9.340271000000001,-0.05368042,0.5585326999999999,1
492,9.272034,-0.08720398,0.60043335,1
493,9.221756,-0.19613647,0.6638794,1
494,9.169083,-0.23324585,0.6926116999999999,1
495,9.221756,-0.21887207,0.7357024999999999,1
496,9.209793,-0.15303039999999998,0.7907715,1
497,9.254074000000001,-0.112335205,0.7835846,1
498,9.281616,-0.10874939,0.78837585,1
499,9.262466,-0.081207275,0.76322937,1
500,9.185837,-0.09197998,0.7907715,1
501,9.155914,-0.105148315,0.85780334,1
502,9.170288000000001,-0.08720398,0.8817444,1
503,9.166687,-0.08241272,0.89372253,1
504,9.17627,-0.12550354,0.9451904000000001,1
505,9.187042,-0.14346313,0.9128723,1
506,9.195419000000001,-0.14944458,0.8949127,1
507,9.141556,-0.078811646,0.9344177,1
508,9.17746,-0.12908936,0.91407776,1
509,9.200211,-0.124313354,0.79556274,1
510,9.167892,-0.15184021,0.85780334,1
511,9.207397,-0.18296814,0.8601989999999999,1
512,9.221756,-0.21170044,0.8877411000000001,1
513,9.182250999999999,-0.23803711,0.91885376,1
514,9.206192,-0.23324585,0.8709716999999999,1
515,9.222961,-0.17459106,0.8889313,1
516,9.17627,-0.14704895,0.86738586,1
517,9.134369,-0.109939575,0.9284363000000001,1
518,9.170288000000001,-0.119522095,0.8841399999999999,1
519,9.250488,-0.13986206,0.74168396,1
520,9.258865,-0.15184021,0.6818390000000001,1
521,9.208588,-0.10874939,0.7357024999999999,1
522,9.228943,-0.083602905,0.7548523,1
523,9.182250999999999,-0.15423584,0.8147125,1
524,9.181061,-0.17936707,0.8123169,1
525,9.209793,-0.17698670000000002,0.7333069000000001,1
526,9.2313385,-0.17578125,0.73091125,1
527,9.25528,-0.18894958,0.80752563,1
528,9.184647,-0.26914978,0.8422394,1
529,9.141556,-0.26556396,0.93681335,1
530,9.125992,-0.13029480000000002,0.9272461,1
531,9.114014,-0.04170227,0.88534546,1
532,9.094864,0.0049743652,0.80513,1
533,9.154724,-0.015365601000000001,0.80633545,1
534,9.243300999999999,-0.03691101,0.8518219000000001,1
535,9.252884,0.05406189,0.7728119000000001,1
536,9.284011999999999,0.16897583,0.7512665,1
537,9.252884,0.17736816,0.6997833000000001,1
538,9.142746,0.12469482400000001,0.75964355,1
539,9.14035,0.09475708,0.75006104,1
540,9.154724,0.062438965,0.71894836,1
541,9.155914,0.038497925,0.72372437,1
542,9.187042,0.0049743652,0.7404938,1
543,9.212173,-0.08720398,0.66986084,1
544,9.224152,-0.117126465,0.67944336,1
545,9.185837,-0.19013977,0.6830291999999999,1
546,9.226547,-0.16381836,0.6758423000000001,1
547,9.175064,-0.114730835,0.61120605,1
548,9.242111,-0.081207275,0.61239624,1
549,9.228943,-0.083602905,0.56092834,1
550,9.252884,-0.090789795,0.5549469,1
551,9.240905999999999,-0.1015625,0.5274048000000001,1
552,9.292389,-0.06803894,0.47473145,1
553,9.291183,-0.090789795,0.46276855,1
554,9.272034,-0.1015625,0.37896729999999995,1
555,9.260071,-0.0010070800999999999,0.40530396,1
556,9.234924000000001,0.060043335,0.3777771,1
557,9.218169999999999,0.13067627,0.31791687,1
558,9.173874,0.2132721,0.2736206,1
559,9.220566,0.18814087,0.36938477,1
560,9.257675,0.18214417,0.37657166,1
561,9.272034,0.18574524,0.36100770000000004,1
562,9.269638,0.15461731,0.31671143,1
563,9.189438,0.15222168,0.44599915,1
564,9.215775,0.10673523,0.45439148,1
565,9.214569000000001,0.1330719,0.36221313,1
566,9.165497,0.12588501,0.42565918,1
567,9.166687,0.060043335,0.44720459999999995,1
568,9.191833500000001,0.08279419,0.49388123,1
569,9.2313385,0.06842041,0.5166321,1
570,9.23851,0.02532959,0.55015564,1
571,9.193024000000001,0.03012085,0.53338623,1
572,9.123596000000001,0.038497925,0.52500916,1
573,9.167892,0.0756073,0.53578186,1
574,9.213379,0.08279419,0.47833252,1
575,9.274429,0.119903564,0.45916748,1
576,9.261261,0.13426208,0.45079040000000004,1
577,9.208588,0.13186646,0.44360352,1
578,9.201400999999999,0.13665771,0.46516418,1
579,9.187042,0.09475708,0.44720459999999995,1
580,9.171478,0.10314941400000001,0.49748230000000004,1
581,9.205002,0.09954834,0.47833252,1
582,9.199005,0.10913086,0.49269104,1
583,9.194229,0.09715271,0.51423645,1
584,9.215775,0.14025879,0.52500916,1
585,9.213379,0.10194397,0.49748230000000004,1
586,9.234924000000001,0.11392212,0.5369873000000001,1
587,9.2313385,0.14503479,0.5202179,1
588,9.215775,0.14384460000000002,0.47952269999999997,1
589,9.196625,0.13067627,0.48191833,1
590,9.172684,0.112716675,0.48910522,1
591,9.151123,0.10913086,0.56811523,1
592,9.225342,0.091171265,0.43164063,1
593,9.202606,0.05645752,0.46635437,1
594,9.213379,0.043289185,0.5154419,1
595,9.243300999999999,0.083984375,0.57528687,1
596,9.206192,0.08758545,0.57170105,1
597,9.221756,0.093566895,0.6064148,1
598,9.173874,0.07800293,0.5058594,1
599,9.155914,0.13546753,0.5405731,1
600,9.163101,0.12588501,0.53219604,1
601,9.163101,0.09715271,0.5226135000000001,1
602,9.291183,0.08758545,0.4986725,1
603,9.251678,0.086380005,0.48789978,1
604,9.205002,0.081588745,0.5513458000000001,1
605,9.213379,0.110321045,0.53219604,1
606,9.203796,0.10673523,0.57528687,1
607,9.199005,0.11631775,0.5549469,1
608,9.202606,0.13067627,0.55255127,1
609,9.179855,0.083984375,0.47952269999999997,1
610,9.210983,0.07081604,0.46276855,1
611,9.23851,0.083984375,0.4807129,1
612,9.227737,0.093566895,0.45916748,1
613,9.222961,0.09236145,0.5166321,1
614,9.188232000000001,0.12469482400000001,0.5369873000000001,1
615,9.212173,0.14144897,0.5298004,1
616,9.199005,0.08758545,0.5046692,1
617,9.179855,0.05645752,0.5405731,1
618,9.236130000000001,0.05166626,0.5274048000000001,1
619,9.251678,0.06842041,0.45199585,1
620,9.230133,0.086380005,0.44360352,1
621,9.184647,0.100753784,0.54655457,1
622,9.166687,0.079193115,0.56451416,1
623,9.224152,0.08039856,0.60401917,1
624,9.179855,0.079193115,0.5992279,1
625,9.178664999999999,0.07321167,0.5549469,1
626,9.202606,0.12469482400000001,0.5058594,1
627,9.182250999999999,0.07321167,0.56092834,1
628,9.25528,0.069625854,0.49029540000000005,1
629,9.243300999999999,0.079193115,0.48670959999999996,1
630,9.225342,0.07800293,0.47593690000000005,1
631,9.196625,0.064834595,0.46516418,1
632,9.213379,0.12948608,0.4807129,1
633,9.173874,0.10673523,0.51423645,1
634,9.21936,0.074417114,0.49987793,1
635,9.208588,0.064834595,0.5046692,1
636,9.205002,0.09596252400000001,0.51423645,1
637,9.199005,0.10913086,0.51423645,1
638,9.215775,0.08998108,0.5441741999999999,1
639,9.228943,0.110321045,0.49627686,1
640,9.205002,0.09715271,0.5369873000000001,1
641,9.199005,0.117507935,0.5453644,1
642,9.232529,0.10433959999999999,0.49150085,1
643,9.216965,0.043289185,0.4807129,1
644,9.195419000000001,0.081588745,0.5166321,1
645,9.2313385,0.091171265,0.49987793,1
646,9.2708435,0.10194397,0.44122314,1
647,9.195419000000001,0.12109375,0.48431396,1
648,9.148727000000001,0.11152649,0.52381897,1
649,9.161896,0.117507935,0.57528687,1
650,9.215775,0.09715271,0.5884552,1
651,9.23851,0.09475708,0.52381897,1
652,9.197815,0.14982605,0.50346375,1
653,9.183456,0.10194397,0.51065063,1
654,9.175064,0.12109375,0.56451416,1
655,9.218169999999999,0.10433959999999999,0.49987793,1
656,9.250488,0.08758545,0.47233582,1
657,9.203796,0.11392212,0.46395874,1
658,9.199005,0.117507935,0.49388123,1
659,9.191833500000001,0.09954834,0.53578186,1
660,9.191833500000001,0.088775635,0.5166321,1
661,9.203796,0.08279419,0.5740967,1
662,9.227737,0.08998108,0.5573273,1
663,9.226547,0.088775635,0.5489501999999999,1
664,9.224152,0.09475708,0.58966064,1
665,9.199005,0.05885315,0.58247375,1
666,9.212173,0.086380005,0.5405731,1
667,9.194229,0.12709045,0.52500916,1
668,9.172684,0.10194397,0.508255,1
669,9.202606,0.119903564,0.54655457,1
670,9.258865,0.107925415,0.48191833,1
671,9.210983,0.09596252400000001,0.5094452,1
672,9.236130000000001,0.05166626,0.5549469,1
673,9.279221000000001,0.0756073,0.44720459999999995,1
674,9.21936,0.07321167,0.47354126,1
675,9.185837,0.12109375,0.55015564,1
676,9.169083,0.1510315,0.58128357,1
677,9.210983,0.07800293,0.57888794,1
678,9.197815,0.06364441,0.6088104,1
679,9.189438,0.074417114,0.61120605,1
680,9.207397,0.093566895,0.53938293,1
681,9.147537,0.122299194,0.55015564,1
682,9.216965,0.07081604,0.5980376999999999,1
683,9.269638,0.055252075,0.5860595999999999,1
684,9.272034,0.06602478,0.6279602,1
685,9.157119999999999,0.093566895,0.53578186,1
686,9.164291,0.091171265,0.5585326999999999,1
687,9.17627,0.09596252400000001,0.57528687,1
688,9.240905999999999,0.026535034,0.6064148,1
689,9.311539,-0.02015686,0.52500916,1
690,9.29718,0.026535034,0.43043518,1
691,9.222961,0.10913086,0.36819458,1
692,9.135558999999999,0.15701294,0.4388275,1
693,9.091277999999999,0.15940857,0.5740967,1
694,9.148727000000001,0.17855835,0.59324646,1
695,9.239716,0.14743042,0.5226135000000001,1
696,9.264847,0.100753784,0.5202179,1
697,9.225342,0.081588745,0.61239624,1
698,9.272034,0.09475708,0.6136017,1
699,9.213379,0.09236145,0.6770477,1
700,9.115219,0.10194397,0.71055603,1
701,9.226547,0.107925415,0.5920563,1
702,9.167892,0.10194397,0.5298004,1
703,9.148727000000001,0.107925415,0.6770477,1
704,9.148727000000001,0.10673523,0.7285156,1
705,9.195419000000001,0.088775635,0.7536621,1
706,9.190628,0.07081604,0.6842345999999999,1
707,9.199005,0.09715271,0.69740295,1
708,9.159514999999999,0.11152649,0.6758423000000001,1
709,9.171478,0.10194397,0.6770477,1
710,9.172684,0.10433959999999999,0.68782043,1
711,9.260071,0.045684814000000004,0.6159973000000001,1
712,9.300766000000001,0.019348145,0.55255127,1
713,9.249298,0.046875,0.56092834,1
714,9.205002,0.04208374,0.5549469,1
715,9.17746,0.04808044400000001,0.5669098000000001,1
716,9.182250999999999,0.06364441,0.59085083,1
717,9.195419000000001,0.08758545,0.5992279,1
718,9.206192,0.110321045,0.6088104,1
719,9.214569000000001,0.08279419,0.5992279,1
720,9.224152,0.079193115,0.6052246,1
721,9.202606,0.033706665,0.57289124,1
722,9.209793,0.038497925,0.64112854,1
723,9.208588,0.07321167,0.67225647,1
724,9.182250999999999,0.12469482400000001,0.666275,1
725,9.178664999999999,0.122299194,0.6255646,1
726,9.188232000000001,0.13905334,0.56451416,1
727,9.170288000000001,0.119903564,0.5776825,1
728,9.21936,0.16778564,0.5549469,1
729,9.171478,0.112716675,0.5561371,1
730,9.189438,0.14384460000000002,0.5513458000000001,1
731,9.23851,0.06842041,0.41966248,1
732,9.196625,0.08758545,0.4328308,1
733,9.194229,0.088775635,0.54776,1
734,9.188232000000001,0.10194397,0.5298004,1
735,9.164291,0.069625854,0.5190277,1
736,9.14035,0.074417114,0.5298004,1
737,9.169083,0.10194397,0.53100586,1
738,9.214569000000001,0.07081604,0.47473145,1
739,9.244507,0.057647705,0.53100586,1
740,9.21936,0.064834595,0.6315613,1
741,9.178664999999999,0.09596252400000001,0.5860595999999999,1
742,9.166687,0.14624023,0.57170105,1
743,9.0793,0.19770813,0.5178375,1
744,9.0577545,0.25875854,0.54776,1
745,9.015854,0.25517273,0.5561371,1
746,8.984726,0.19770813,0.6315613,1
747,9.069733,0.16659546,0.5776825,1
748,9.145142,0.093566895,0.4986725,1
749,9.215775,0.14144897,0.46276855,1
750,9.234924000000001,0.043289185,0.42565918,1
751,9.262466,-0.00340271,0.38734436,1
752,9.233734,-0.03213501,0.38974000000000003,1
753,9.12001,-0.1015625,0.32987976,1
754,9.090073,-0.09916687,0.26763916,1
755,9.104446000000001,-0.08720398,0.14074707,1
756,9.13916,-0.07641601599999999,0.01625061,1
757,9.246902,-0.13627625,-0.10586548,1
758,9.263657,-0.112335205,-0.14775085,1
759,9.313934,-0.16021729,-0.06636047,1
760,9.330688,-0.12789917,-0.21479797,1
761,9.31633,-0.26675415,-0.37521362,1
762,9.149933,-0.11831665,-0.27345276,1
763,9.25647,-0.22247314,-0.39915466,1
764,9.123596000000001,-0.0045928955,-0.5894928,1
765,9.075714,0.055252075,-0.6505432,1
766,9.218169999999999,0.086380005,-0.669693,1
767,9.068527,-0.109939575,-0.5535736,1
768,9.268448,-0.3002777,-0.4458313,1
769,9.595245,-0.42118835,-0.4230957,1
770,9.596451,-0.4846344,-0.45182799999999995,1
771,9.3941345,-0.47505188,-0.5116729999999999,1
772,9.00029,-0.6929320999999999,-0.44943237,1
773,8.941635,-0.95988464,-0.43147278,1
774,9.014664,-0.9323425,-0.46977234,1
775,9.102051,-0.8665161,-0.41830444,1
776,9.181061,-0.88327026,-0.5571594,1
777,9.220566,-0.76475525,-0.654129,1
778,9.215775,-0.6139220999999999,-0.63856506,1
779,9.3151245,-0.49182129999999996,-0.6577301,1
780,9.307953,-0.6187134,-0.8564453000000002,1
781,9.185837,-0.8820648000000001,-0.91270447,1
782,9.076903999999999,-0.98023987,-0.68167114,1
783,9.014664,-0.8425598,-0.48893738,1
784,8.929672,-0.49301147,-0.5404053000000001,1
785,8.952408,-0.23683167,-0.8396759,1
786,9.070922999999999,-0.39604187,-1.1784668,1
787,9.233734,-0.6079406999999999,-1.3867645,1
788,9.408508,-0.77194214,-1.5244293,1
789,9.403717,-0.80426025,-1.6118164,1
790,9.515044999999999,-0.85095215,-1.5148468000000002,1
791,9.47435,-0.59716797,-1.550766,1
792,9.236130000000001,-0.4092102,-1.579483,1
793,9.014664,-0.6103363,-1.6716613999999999,1
794,9.051772999999999,-0.8413695999999999,-1.5878754,1
795,9.067337,-0.9072113000000002,-1.5136566,1
796,9.068527,-0.75756836,-1.2179718000000002,1
797,9.052963,-0.7491913,-1.1581116000000002,1
798,8.935654,-0.79348755,-1.3783722,1
799,9.082901,-1.0819855,-1.6716613999999999,1
800,9.23851,-1.1885223,-1.9805145,1
801,9.225342,-0.97424316,-2.2498627,1
802,9.178664999999999,-1.0855713,-2.230713,1
803,9.202606,-1.1454315000000002,-2.2199402000000004,1
804,9.280411,-1.1131133999999998,-2.0619202000000003,1
805,9.197815,-1.0029755,-2.0858612,1
806,9.058945,-1.1621857,-2.278595,1
807,8.780028999999999,-1.4770355,-2.144516,1
808,8.92128,-1.5081482,-1.9685516,1
809,9.134369,-1.3704834,-2.029602,1
810,8.9991,-1.1286774,-2.0619202000000003,1
811,8.835098,-1.0065765,-1.8440552,1
812,8.982330000000001,-0.8138428000000001,-1.6058197,1
813,9.2313385,-0.64505005,-1.5028687,1
814,9.518631,-0.46788025,-1.4490051000000002,1
815,9.616806,-0.32661438,-1.2873993000000001,1
816,9.633560000000001,-0.27275085,-1.2395171999999999,1
817,9.378571,-0.33978270000000005,-1.2299347,1
818,9.147537,-0.5205536000000001,-0.9438324,1
819,9.003891000000001,-0.83299255,-0.73194885,1
820,8.960785000000001,-1.131073,-0.6110382,1
821,9.06134,-1.4554901000000002,-0.5727234,1
822,9.191833500000001,-1.6182861000000002,-0.73553467,1
823,9.227737,-1.5500488000000001,-0.9234771999999999,1
824,9.246902,-1.1825409,-1.0791016000000002,1
825,9.142746,-0.7815094,-1.0539703,1
826,9.102051,-0.47027588,-0.94981384,1
827,9.225342,-0.27754209999999996,-0.93904114,1
828,9.129578,-0.27275085,-1.1377563,1
829,9.185837,-0.18894958,-1.1257935,1
830,9.151123,-0.088394165,-1.0419922,1
831,9.323516999999999,-0.23085022,-0.8492584000000001,1
832,9.406113000000001,-0.40203857,-0.7786255,1
833,9.348647999999999,-0.7156677,-0.73313904,1
834,9.212173,-0.9107970999999999,-0.5978699000000001,1
835,9.0972595,-1.0580444,-0.41471863,1
836,9.052963,-0.97065735,-0.32493590000000006,1
837,9.029022,-0.7623595999999999,-0.27226257,1
838,9.081696,-0.59716797,-0.27584840000000005,1
839,9.193024000000001,-0.38049316,-0.26148987,1
840,9.212173,-0.30625916,-0.087905884,1
841,9.171478,-0.4056244,0.17785645,1
842,9.282805999999999,-0.5540619000000001,0.35144043,1
843,9.258865,-0.6522217,0.43043518,1
844,9.294785000000001,-0.67378235,0.32150270000000003,1
845,9.23851,-0.45350647,0.11920166,1
846,9.191833500000001,-0.085998535,0.070114136,1
847,9.145142,0.33059692,-0.028045654,1
848,9.133179,0.48860168,-0.32014465,1
849,9.274429,0.3282013,-0.630188,1
850,9.398926,0.2300415,-0.67448425,1
851,9.367797999999999,0.14263916,-0.6230011,1
852,9.258865,0.115112305,-0.4530182,1
853,9.052963,0.069625854,-0.024459839,1
854,8.918884,-0.21768188,0.26524353,1
855,8.914108,-0.70370483,0.42805479999999996,1
856,9.109222,-1.412384,0.27601624,1
857,9.188232000000001,-1.6518096999999998,0.1431427,1
858,9.300766000000001,-1.5297089,0.110809326,1
859,9.39653,-1.155014,0.096450806,1
860,9.361816000000001,-0.8892517,0.18862915,1
861,9.269638,-0.7192688,0.15750122,1
862,9.289992999999999,-0.6582184,0.21855164,1
863,9.321121,-0.59835815,0.20298767,1
864,9.269638,-0.49421692,0.2341156,1
865,9.285202,-0.36132813,0.18025208,1
866,9.303162,-0.26437378,0.17546082,1
867,9.193024000000001,-0.25120544,0.28559875,1
868,9.135558999999999,-0.25,0.35144043,1
869,9.136764999999999,-0.30506897,0.33587646,1
870,9.136764999999999,-0.28352356,0.36221313,1
871,9.2708435,-0.41879272,0.27960205,1
872,9.351044,-0.46667479999999995,0.22692871,1
873,9.329498,-0.5792084,0.2808075,1
874,9.295975,-0.58758545,0.36579895,1
875,9.257675,-0.5241394,0.44480896,1
876,9.242111,-0.6151123000000001,0.46276855,1
877,9.228943,-0.62350464,0.43643188,1
878,9.202606,-0.5349121,0.47712708,1
879,9.179855,-0.43675232,0.49987793,1
880,9.15831,-0.43675232,0.5740967,1
881,9.145142,-0.44154358,0.6471100000000001,1
882,9.228943,-0.5732269,0.6638794,1
883,9.230133,-0.64505005,0.7225342,1
884,9.206192,-0.6689911000000001,0.75605774,1
885,9.160706,-0.61990356,0.83984375,1
886,9.133179,-0.5792084,0.8913269,1
887,9.092467999999998,-0.50738525,0.8889313,1
888,9.099655,-0.39485168,0.8877411000000001,1
889,9.153519000000001,-0.3182373,0.7943573,1
890,9.166687,-0.2571869,0.7979584,1
891,9.163101,-0.24520874,0.8506316999999999,1
892,9.228943,-0.30625916,0.8374634,1
893,9.21936,-0.30865479999999995,0.78956604,1
894,9.190628,-0.37928772,0.80992126,1
895,9.143951,-0.3649292,0.92962646,1
896,9.134369,-0.29788208,0.9595642,1
897,9.208588,-0.33978270000000005,0.83506775,1
898,9.14035,-0.4044342,0.80033875,1
899,9.17746,-0.39604187,0.95596313,1
900,9.243300999999999,-0.3649292,0.78718567,1
901,9.210983,-0.36132813,0.7512665,1
902,9.152328500000001,-0.37091064,0.8266754000000001,1
903,9.185837,-0.36611938,0.8733673000000001,1
904,9.163101,-0.42118835,0.8769530999999999,1
905,9.146347,-0.41281128,0.90689087,1
906,9.141556,-0.42477417,0.8147125,1
907,9.201400999999999,-0.43554688,0.7141571,1
908,9.222961,-0.42358398,0.72013855,1
909,9.245697,-0.41281128,0.73928833,1
910,9.276825,-0.36132813,0.69740295,1
911,9.207397,-0.31344604,0.6818390000000001,1
912,9.142746,-0.29309082,0.67344666,1
913,9.12001,-0.3589325,0.58966064,1
914,9.170288000000001,-0.38887024,0.61479187,1
915,9.250488,-0.43315125,0.69021606,1
916,9.307953,-0.44033813,0.7153473000000001,1
917,9.25528,-0.41160583,0.73809814,1
918,9.188232000000001,-0.3697052,0.6830291999999999,1
919,9.141556,-0.36013794,0.6746521,1
920,9.09845,-0.37928772,0.68063354,1
921,9.134369,-0.42837524,0.6961975,1
922,9.157119999999999,-0.5205536000000001,0.76683044,1
923,9.17627,-0.6546173000000001,0.8542175,1
924,9.195419000000001,-0.74679565,0.7979584,1
925,9.269638,-0.71687317,0.7763977,1
926,9.244507,-0.57681274,0.75605774,1
927,9.218169999999999,-0.4379425,0.7368927,1
928,9.111618,-0.3876648,0.6267699999999999,1
929,9.157119999999999,-0.36253357,0.60762024,1
930,9.21936,-0.28231812,0.51304626,1
931,9.206192,-0.27514648,0.53578186,1
932,9.213379,-0.30865479999999995,0.5573273,1
933,9.286407,-0.36372375,0.68782043,1
934,9.240905999999999,-0.43196106,0.6938019,1
935,9.197815,-0.46667479999999995,0.59324646,1
936,9.164291,-0.42358398,0.5884552,1
937,9.121201,-0.45471190000000006,0.58128357,1
938,9.114014,-0.43196106,0.61839294,1
939,9.096069,-0.39245605,0.7512665,1
940,9.0577545,-0.27275085,0.78479004,1
941,9.058945,-0.13627625,0.69021606,1
942,9.187042,0.014556885,0.46516418,1
943,9.406113000000001,-0.03213501,0.1874237,1
944,9.524628,-0.12908936,-0.035232544,1
945,9.373795,-0.22007751,0.019836426,1
946,9.165497,-0.19134521,0.029418945,1
947,9.135558999999999,-0.19853210000000002,0.05934143,1
948,9.183456,-0.16979979999999997,0.04498291,1
949,9.228943,-0.17459106,-0.049591064000000004,1
950,9.269638,-0.13029480000000002,-0.06755066,1
951,9.282805999999999,-0.17459106,-0.11663818,1
952,9.305557,-0.20211792,-0.12261963,1
953,9.291183,-0.21528625,-0.08430481,1
954,9.264847,-0.25479126,-0.020858765,1
955,9.282805999999999,-0.24401855,0.015045166,1
956,9.311539,-0.17578125,-0.007690429699999999,1
957,9.267242,-0.17219543,0.0138549805,1
958,9.188232000000001,-0.16979979999999997,0.108428955,1
959,9.195419000000001,-0.19013977,0.04975891,1
960,9.155914,-0.19732666,0.07849121,1
961,9.203796,-0.23564148,0.11441040000000001,1
962,9.276825,-0.21887207,0.10961914,1
963,9.304352,-0.26914978,0.08088684,1
964,9.329498,-0.31344604,0.050964355,1
965,9.275619500000001,-0.37928772,0.055755615,1
966,9.272034,-0.36732483,0.03540039,1
967,9.210983,-0.38287354,0.025817871000000003,1
968,9.199005,-0.38647459999999995,0.05694580000000001,1
969,9.212173,-0.3984375,0.017440796,1
970,9.293579,-0.33259583,0.05455017,1
971,9.299576,-0.28112793,0.06292724599999999,1
972,9.279221000000001,-0.26914978,0.09526062,1
973,9.227737,-0.22726439999999998,0.15510559,1
974,9.153519000000001,-0.25598145,0.25326538,1
975,9.155914,-0.25120544,0.28199768,1
976,9.196625,-0.27035522,0.31072998,1
977,9.239716,-0.29071045,0.34304809999999997,1
978,9.339081,-0.31344604,0.38136292,1
979,9.324707,-0.3649292,0.3933258,1
980,9.29837,-0.42118835,0.37896729999999995,1
981,9.268448,-0.40682983,0.33348083,1
982,9.25647,-0.3697052,0.34783936,1
983,9.189438,-0.35774229999999996,0.3131256,1
984,9.17627,-0.34576416,0.28199768,1
985,9.145142,-0.39126587,0.14433289,1
986,9.190628,-0.35055542,0.12518310000000002,1
987,9.29718,-0.3481598,0.19102478,1
988,9.357025,-0.289505,0.13835144,1
989,9.347458,-0.210495,0.16827393,1
990,9.220566,-0.18415833,0.32748413,1
991,9.206192,-0.1877594,0.40171814,1
992,9.225342,-0.22726439999999998,0.45797730000000003,1
993,9.244507,-0.22007751,0.49388123,1
994,9.209793,-0.23922729999999998,0.5058594,1
995,9.17746,-0.22486877,0.52142334,1
996,9.153519000000001,-0.17578125,0.63394165,1
997,9.166687,-0.18176270000000003,0.6542969,1
998,9.199005,-0.12908936,0.6542969,1
999,9.191833500000001,-0.10874939,0.6243744000000001,1
1000,9.17746,-0.13986206,0.686615,1
1001,9.187042,-0.085998535,0.6746521,1
1002,9.154724,-0.07641601599999999,0.60162354,1
1003,9.159514999999999,-0.09197998,0.7333069000000001,1
1004,9.142746,-0.23564148,0.71655273,1
1005,9.110428,-0.25958252,0.6315613,1
1006,9.081696,-0.20809937,0.60162354,1
1007,9.136764999999999,-0.17698670000000002,0.5740967,1
1008,9.185837,-0.1925354,0.55374146,1
1009,9.234924000000001,-0.1877594,0.5381775,1
1010,9.260071,-0.18296814,0.5860595999999999,1
1011,9.206192,-0.21170044,0.5597229,1
1012,9.193024000000001,-0.18057251,0.5980376999999999,1
1013,9.17746,-0.18057251,0.62197876,1
1014,9.216965,-0.22605896,0.57528687,1
1015,9.2313385,-0.33021545,0.5369873000000001,1
1016,9.272034,-0.33380127,0.5345916999999999,1
1017,9.3103485,-0.3541565,0.45199585,1
1018,9.220566,-0.3649292,0.4807129,1
1019,9.187042,-0.34936523,0.5693054,1
1020,9.184647,-0.29788208,0.5693054,1
1021,9.163101,-0.25837708,0.5166321,1
1022,9.216965,-0.24281311,0.50346375,1
1023,9.23851,-0.24401855,0.4220581,1
1024,9.21936,-0.3074646,0.40290833,1
1025,9.220566,-0.31942750000000003,0.38734436,1
1026,9.246902,-0.289505,0.36938477,1
1027,9.29837,-0.22845459,0.32389832,1
1028,9.345061999999999,-0.11352539,0.2520752,1
1029,9.300766000000001,-0.0045928955,0.18862915,1
1030,9.268448,0.014556885,0.15631104,1
1031,9.167892,-0.0010070800999999999,0.19342041,1
1032,9.145142,-0.119522095,0.36819458,1
1033,9.118805,-0.31344604,0.41966248,1
1034,9.209793,-0.43077087,0.45916748,1
1035,9.248092999999999,-0.49061584,0.45677185,1
1036,9.23732,-0.47865295,0.45558167,1
1037,9.178664999999999,-0.4846344,0.45079040000000004,1
1038,9.190628,-0.46069336,0.45318604,1
1039,9.169083,-0.4834442,0.47952269999999997,1
1040,9.209793,-0.44992065,0.429245,1
1041,9.222961,-0.4044342,0.38136292,1
1042,9.227737,-0.37210083,0.3310852,1
1043,9.284011999999999,-0.35295105,0.29756165,1
1044,9.318726,-0.37809753,0.22573853,1
1045,9.369003,-0.3936615,0.26763916,1
1046,9.450409,-0.32781982,0.13835144,1
1047,9.305557,-0.2212677,0.1539154,1
1048,9.159514999999999,-0.14465332,0.11441040000000001,1
1049,9.147537,-0.11592102,0.137146,1
1050,9.166687,-0.22845459,0.16348267,1
1051,9.244507,-0.39006042,0.19700623,1
1052,9.300766000000001,-0.47265625,0.2640381,1
1053,9.254074000000001,-0.47625732,0.3310852,1
1054,9.194229,-0.5241394,0.41607666,1
1055,9.220566,-0.5097656,0.5094452,1
1056,9.210983,-0.47265625,0.5345916999999999,1
1057,9.227737,-0.39126587,0.49150085,1
1058,9.197815,-0.31105042,0.48431396,1
1059,9.203796,-0.25,0.5453644,1
1060,9.167892,-0.18415833,0.6064148,1
1061,9.115219,-0.20809937,0.60762024,1
1062,9.163101,-0.26795959999999996,0.6387329,1
1063,9.188232000000001,-0.31105042,0.6471100000000001,1
1064,9.267242,-0.32781982,0.49269104,1
1065,9.313934,-0.36132813,0.30354309999999995,1
1066,9.2313385,-0.23564148,0.21257019,1
1067,9.262466,-0.17459106,0.27960205,1
1068,9.307953,-0.23564148,0.44960022,1
1069,9.272034,-0.32063293,0.4388275,1
1070,9.220566,-0.3936615,0.4112854,1
1071,9.110428,-0.37570190000000003,0.34664917,1
1072,9.191833500000001,-0.36611938,0.29516602,1
1073,9.263657,-0.37928772,0.22453308,1
1074,9.25647,-0.38647459999999995,0.096450806,1
1075,9.166687,-0.32900999999999997,0.16468811,1
1076,9.245697,-0.20690918,0.18144226,1
1077,9.206192,-0.08001709,0.20298767,1
1078,9.222961,-0.11592102,0.3705902,1
1079,9.194229,-0.16979979999999997,0.5298004,1
1080,9.242111,-0.19374084,0.5776825,1
1081,9.268448,-0.14944458,0.5860595999999999,1
1082,9.2708435,-0.10874939,0.60043335,1
1083,9.213379,-0.0021972656,0.666275,1
1084,9.135558999999999,0.093566895,0.67944336,1
1085,9.031417999999999,0.052871704000000005,0.61839294,1
1086,9.134369,0.031311035,0.67344666,1
1087,9.17627,0.03251648,0.69140625,1
1088,9.216965,0.03730774,0.79914856,1
1089,9.254074000000001,0.09715271,0.8338623,1
1090,9.250488,-0.035720825,0.65789795,1
1091,9.152328500000001,-0.16142273,0.55015564,1
1092,9.17746,-0.33140564,0.40888977,1
1093,9.252884,-0.32421875,0.3825531,1
1094,9.281616,-0.25479126,0.33706665,1
1095,9.31633,-0.15542603,0.19700623,1
1096,9.33548,-0.16740417,0.19342041,1
1097,9.29718,-0.21170044,0.2700348,1
1098,9.136764999999999,-0.28112793,0.3885498,1
1099,9.068527,-0.2715454,0.41009520000000005,1
1100,9.166687,-0.19013977,0.38136292,1
1101,9.311539,-0.105148315,0.42684937,1
1102,9.407303,-0.08241272,0.49987793,1
1103,9.382172,-0.03930664,0.56211853,1
1104,9.246902,-0.121917725,0.5345916999999999,1
1105,9.093674,-0.13867188,0.6542969,1
1106,9.108032000000001,-0.14465332,0.765625,1
1107,9.178664999999999,-0.100372314,0.63394165,1
1108,9.165497,-0.069244385,0.72372437,1
1109,9.159514999999999,-0.08241272,0.7752074999999999,1
1110,9.155914,0.019348145,0.79914856,1
1111,9.114014,0.08279419,0.82907104,1
1112,9.090073,0.13546753,0.8302765,1
1113,9.142746,0.16897583,0.7404938,1
1114,9.159514999999999,0.115112305,0.7548523,1
1115,9.206192,0.12109375,0.66267395,1
1116,9.249298,0.098358154,0.60043335,1
1117,9.2313385,0.18095398,0.48431396,1
1118,9.232529,0.2515869,0.47952269999999997,1
1119,9.17746,0.31263733,0.40769958,1
1120,9.076903999999999,0.36170959999999996,0.38494873,1
1121,9.111618,0.39164734,0.42805479999999996,1
1122,9.072113,0.35812378,0.4986725,1
1123,9.202606,0.28869629999999996,0.46276855,1
1124,9.295975,0.13665771,0.34304809999999997,1
1125,9.311539,-0.04888916,0.35263062,1
1126,9.213379,-0.15782166,0.43164063,1
1127,9.131973,-0.15782166,0.4112854,1
1128,9.135558999999999,-0.06564331,0.3777771,1
1129,9.181061,0.04208374,0.29516602,1
1130,9.260071,0.107925415,0.17425537,1
1131,9.244507,0.1797638,0.027023315,1
1132,9.288788,0.20610046,-0.029251099,1
1133,9.304352,0.22525024,-0.03881836,1
1134,9.273239,0.19651794,-0.05079651,1
1135,9.258865,0.15701294,0.034194946000000004,1
1136,9.322311000000001,0.08758545,-0.030441284,1
1137,9.293579,-0.02734375,-0.020858765,1
1138,9.244507,-0.08241272,0.05455017,1
1139,9.213379,-0.08958435,0.117996216,1
1140,9.208588,-0.071640015,0.16587829999999998,1
1141,9.248092999999999,-0.071640015,0.10722351,1
1142,9.280411,-0.016571045,0.14074707,1
1143,9.244507,0.0181427,0.108428955,1
1144,9.21936,0.02772522,0.17785645,1
1145,9.203796,0.010971068999999998,0.23890686,1
1146,9.207397,0.038497925,0.19940186,1
1147,9.225342,0.08279419,0.16947937,1
1148,9.232529,0.09715271,0.20059204,1
1149,9.185837,0.13905334,0.20298767,1
1150,9.191833500000001,0.10433959999999999,0.23292542,1
1151,9.208588,0.12109375,0.21017456,1
1152,9.234924000000001,0.08279419,0.2341156,1
1153,9.245697,0.026535034,0.19940186,1
1154,9.262466,0.040893555,0.15750122,1
1155,9.254074000000001,0.06124878,0.12876892,1
1156,9.218169999999999,0.07800293,0.16708374,1
1157,9.205002,0.07800293,0.10961914,1
1158,9.206192,0.11152649,0.08088684,1
1159,9.209793,0.10314941400000001,0.096450806,1
1160,9.21936,0.10314941400000001,0.07250976599999999,1
1161,9.262466,0.069625854,0.08328247,1
1162,9.233734,0.031311035,0.096450806,1
1163,9.194229,0.031311035,0.13595581,1
1164,9.300766000000001,0.02532959,0.06173706,1
1165,9.25528,-0.00340271,0.028213501000000002,1
1166,9.191833500000001,0.03730774,0.10722351,1
1167,9.184647,0.03730774,0.16348267,1
1168,9.215775,0.03970337,0.12397766,1
1169,9.214569000000001,0.05166626,0.15031433,1
1170,9.184647,0.04808044400000001,0.13356018,1
1171,9.203796,0.045684814000000004,0.15270996,1
1172,9.221756,0.046875,0.13237000000000002,1
1173,9.220566,0.01574707,0.17425537,1
1174,9.268448,0.016952515,0.13595581,1
1175,9.274429,0.016952515,0.098846436,1
1176,9.254074000000001,-0.012969971,0.13476563,1
1177,9.222961,0.016952515,0.103637695,1
1178,9.209793,0.0037841796999999997,0.13356018,1
1179,9.199005,-0.0105896,0.171875,1
1180,9.234924000000001,-0.00340271,0.16468811,1
1181,9.212173,-0.0045928955,0.1431427,1
1182,9.210983,-0.00579834,0.19342041,1
1183,9.193024000000001,-0.006988525400000001,0.18504333,1
1184,9.222961,0.0013885498,0.20059204,1
1185,9.254074000000001,-0.00579834,0.19102478,1
1186,9.258865,0.08039856,0.13835144,1
1187,9.220566,0.081588745,0.1826477,1
1188,9.208588,0.07321167,0.21138,1
1189,9.203796,0.06842041,0.171875,1
1190,9.172684,0.07321167,0.18981934,1
1191,9.147537,0.045684814000000004,0.24609375,1
1192,9.226547,0.055252075,0.20538330000000002,1
1193,9.269638,0.04208374,0.09526062,1
1194,9.232529,0.028915405,0.103637695,1
1195,9.193024000000001,0.064834595,0.17066956,1
1196,9.203796,0.052871704000000005,0.17546082,1
1197,9.246902,0.024139404,0.14791870000000001,1
1198,9.262466,0.008575439,0.13835144,1
1199,9.244507,0.04447937,0.096450806,1
1200,9.251678,0.06124878,0.03540039,1
1201,9.221756,0.046875,0.050964355,1
1202,9.240905999999999,0.04208374,0.05455017,1
1203,9.272034,0.040893555,0.07849121,1
1204,9.254074000000001,0.07202148400000001,0.027023315,1
1205,9.2313385,0.04208374,0.084472656,1
1206,9.193024000000001,0.04447937,0.13954163,1
1207,9.189438,0.024139404,0.19581604,1
1208,9.2313385,0.02053833,0.14193726,1
1209,9.25528,-0.006988525400000001,0.18623352,1
1210,9.242111,0.0061798096,0.15031433,1
1211,9.221756,0.03970337,0.12997437,1
1212,9.206192,0.03251648,0.18981934,1
1213,9.194229,-0.00819397,0.18623352,1
1214,9.230133,-0.011779785,0.19700623,1
1215,9.221756,0.036102295,0.21736145,1
1216,9.182250999999999,0.06124878,0.19940186,1
1217,9.194229,0.06124878,0.23532104,1
1218,9.269638,0.02532959,0.20898438,1
1219,9.226547,0.009765625,0.20179749,1
1220,9.209793,0.0061798096,0.25686646,1
1221,9.287598,-0.0440979,0.10243225,1
1222,9.286407,-0.052474976,0.108428955,1
1223,9.225342,-0.0010070800999999999,0.12518310000000002,1
1224,9.182250999999999,0.07321167,0.18144226,1
1225,9.206192,0.07321167,0.23890686,1
1226,9.189438,0.028915405,0.24488829999999998,1
1227,9.202606,0.050476074,0.25086975,1
1228,9.221756,0.09596252400000001,0.23052979,1
1229,9.203796,0.040893555,0.25086975,1
1230,9.195419000000001,0.055252075,0.24130249,1
1231,9.252884,0.02293396,0.2233429,1
1232,9.251678,0.021743774,0.21975708,1
1233,9.23732,0.02053833,0.22692871,1
1234,9.189438,0.04208374,0.22453308,1
1235,9.17746,0.04927063,0.21975708,1
1236,9.206192,0.009765625,0.24848938,1
1237,9.212173,-0.0021972656,0.24130249,1
1238,9.220566,0.014556885,0.23052979,1
1239,9.239716,0.008575439,0.24609375,1
1240,9.246902,0.007369995,0.23171997,1
1241,9.228943,0.03251648,0.24848938,1
1242,9.206192,0.021743774,0.24609375,1
1243,9.181061,0.028915405,0.24488829999999998,1
1244,9.195419000000001,-0.00579834,0.25326538,1
1245,9.220566,-0.018966675,0.2808075,1
1246,9.249298,-0.02255249,0.26643372,1
1247,9.25647,-0.021362305,0.2520752,1
1248,9.215775,-0.009384155,0.24848938,1
1249,9.250488,0.012161255,0.27122498,1
1250,9.239716,0.009765625,0.23890686,1
1251,9.15831,0.010971068999999998,0.26643372,1
1252,9.213379,0.03970337,0.27122498,1
1253,9.269638,-0.0021972656,0.20658875,1
1254,9.194229,-0.0045928955,0.24967957,1
1255,9.197815,-0.00340271,0.30235290000000004,1
1256,9.208588,-0.021362305,0.32270813,1
1257,9.252884,-0.03453064,0.28199768,1
1258,9.197815,-0.00579834,0.2843933,1
1259,9.167892,0.02772522,0.28320313,1
1260,9.189438,-0.009384155,0.24249268,1
1261,9.187042,-0.01776123,0.2640381,1
1262,9.246902,0.0013885498,0.24130249,1
1263,9.292389,0.016952515,0.22453308,1
1264,9.25528,-0.006988525400000001,0.19102478,1
1265,9.230133,0.02532959,0.21138,1
1266,9.210983,0.013366699,0.23651123,1
1267,9.195419000000001,-0.0010070800999999999,0.23532104,1
1268,9.213379,-0.018966675,0.32150270000000003,1
1269,9.215775,0.010971068999999998,0.30235290000000004,1
1270,9.216965,0.02532959,0.30354309999999995,1
1271,9.196625,0.033706665,0.2915802,1
1272,9.228943,0.026535034,0.30235290000000004,1
1273,9.190628,0.0061798096,0.27960205,1
1274,9.214569000000001,0.0181427,0.2987671,1
1275,9.226547,0.0037841796999999997,0.27122498,1
1276,9.248092999999999,0.012161255,0.2808075,1
1277,9.222961,-0.0021972656,0.27960205,1
1278,9.194229,0.03251648,0.29277040000000004,1
1279,9.208588,-0.00819397,0.30714417,1
1280,9.225342,-0.00340271,0.30593872,1
1281,9.225342,0.024139404,0.28320313,1
1282,9.207397,0.013366699,0.26763916,1
1283,9.232529,-0.02734375,0.24967957,1
1284,9.25528,-0.02494812,0.24967957,1
1285,9.191833500000001,-0.00340271,0.20898438,1
1286,9.205002,-0.0010070800999999999,0.22692871,1
1287,9.234924000000001,-0.006988525400000001,0.19221497,1
1288,9.216965,0.007369995,0.14193726,1
1289,9.190628,0.02532959,0.18144226,1
1290,9.208588,0.02053833,0.18981934,1
1291,9.234924000000001,-0.02255249,0.20059204,1
1292,9.189438,-0.012969971,0.24609375,1
1293,9.148727000000001,-0.012969971,0.216156,1
1294,9.169083,-0.02015686,0.21138,1
1295,9.208588,0.00019836426,0.20658875,1
1296,9.249298,-0.011779785,0.21017456,1
1297,9.292389,-0.028533936,0.15870667,1
1298,9.252884,-0.033325195,0.11201477,1
1299,9.214569000000001,-0.015365601000000001,0.11201477,1
1300,9.179855,0.00019836426,0.17066956,1
1301,9.225342,0.021743774,0.18144226,1
1302,9.230133,-0.015365601000000001,0.15151978,1
1303,9.196625,-0.02255249,0.16468811,1
1304,9.215775,-0.021362305,0.17785645,1
1305,9.227737,0.0037841796999999997,0.19940186,1
1306,9.206192,-0.009384155,0.21257019,1
1307,9.201400999999999,-0.0105896,0.21855164,1
1308,9.218169999999999,-0.015365601000000001,0.16827393,1
1309,9.248092999999999,-0.009384155,0.15989685,1
1310,9.226547,0.02053833,0.12757874,1
1311,9.257675,0.0025787354,0.120391846,1
1312,9.224152,0.014556885,0.11920166,1
1313,9.216965,0.02293396,0.137146,1
1314,9.245697,0.00019836426,0.15510559,1
1315,9.272034,0.033706665,0.15989685,1
1316,9.23851,0.016952515,0.17546082,1
1317,9.200211,0.02293396,0.16947937,1
1318,9.250488,-0.00340271,0.24009705,1
1319,9.201400999999999,-0.0105896,0.1946106,1
1320,9.173874,0.021743774,0.3143158,1
1321,9.230133,-0.030929565,0.22215271,1
1322,9.264847,0.02053833,0.13116455,1
1323,9.246902,-0.03453064,0.17306519,1
1324,9.257675,0.05166626,0.20777893,1
1325,9.214569000000001,0.03251648,0.25326538,1
1326,9.201400999999999,-0.0021972656,0.21257019,1
1327,9.171478,0.02532959,0.18504333,1
1328,9.173874,0.04208374,0.24249268,1
1329,9.194229,0.02293396,0.176651,1
1330,9.210983,0.008575439,0.18144226,1
1331,9.264847,-0.0105896,0.15870667,1
1332,9.278015,0.0037841796999999997,0.19940186,1
1333,9.272034,0.03491211,0.22692871,1
1334,9.208588,0.031311035,0.21138,1
1335,9.155914,-0.0021972656,0.23292542,1
1336,9.167892,-0.00340271,0.29637146,1
1337,9.173874,-0.03691101,0.34304809999999997,1
1338,9.242111,-0.030929565,0.28678894,1
1339,9.257675,-0.045303345,0.28320313,1
1340,9.278015,-0.038116455,0.27601624,1
1341,9.250488,-0.03691101,0.25805664,1
1342,9.239716,0.0013885498,0.23052979,1
1343,9.200211,-0.012969971,0.24249268,1
1344,9.167892,-0.015365601000000001,0.24369812,1
1345,9.25647,-0.01776123,0.23292542,1
1346,9.244507,-0.00819397,0.22573853,1
1347,9.254074000000001,-0.00819397,0.23292542,1
1348,9.244507,-0.00819397,0.24488829999999998,1
1349,9.221756,-0.0045928955,0.25086975,1
1350,9.232529,0.0181427,0.21736145,1
1351,9.199005,0.009765625,0.24728394,1
1352,9.199005,-0.0021972656,0.29397583,1
1353,9.263657,0.010971068999999998,0.25086975,1
1354,9.2313385,-0.040512085,0.24249268,1
1355,9.172684,-0.0105896,0.32987976,1
1356,9.213379,0.016952515,0.29637146,1
1357,9.279221000000001,-0.018966675,0.19700623,1
1358,9.212173,-0.023742676,0.24609375,1
1359,9.178664999999999,0.009765625,0.36221313,1
1360,9.21936,-0.04888916,0.3310852,1
1361,9.249298,-0.023742676,0.28678894,1
1362,9.222961,-0.00340271,0.27601624,1
1363,9.234924000000001,0.0025787354,0.31193542,1
1364,9.21936,0.01574707,0.26643372,1
1365,9.189438,-0.021362305,0.21376038,1
1366,9.202606,-0.016571045,0.27243042,1
1367,9.263657,-0.021362305,0.22813416,1
1368,9.249298,-0.018966675,0.23532104,1
1369,9.232529,0.02772522,0.27243042,1
1370,9.185837,0.036102295,0.28678894,1
1371,9.149933,-0.011779785,0.37298584,1
1372,9.199005,-0.0045928955,0.38615417,1
1373,9.221756,-0.03213501,0.38494873,1
1374,9.239716,-0.01776123,0.36579895,1
1375,9.23851,-0.03930664,0.30714417,1
1376,9.234924000000001,-0.01776123,0.32868958,1
1377,9.2313385,-0.02015686,0.33348083,1
1378,9.221756,0.007369995,0.31193542,1
1379,9.175064,0.012161255,0.28559875,1
1380,9.200211,-0.02734375,0.30354309999999995,1
1381,9.187042,-0.0105896,0.2843933,1
1382,9.218169999999999,-0.02494812,0.33227540000000005,1
1383,9.215775,-0.023742676,0.27960205,1
1384,9.263657,-0.02494812,0.27960205,1
1385,9.23851,-0.016571045,0.29637146,1
1386,9.207397,-0.01776123,0.29637146,1
1387,9.214569000000001,-0.00340271,0.3131256,1
1388,9.233734,-0.014175415,0.29516602,1
1389,9.232529,0.0013885498,0.33587646,1
1390,9.220566,0.02053833,0.34783936,1
1391,9.260071,0.014556885,0.32987976,1
1392,9.228943,-0.018966675,0.32510376,1
1393,9.164291,-0.014175415,0.38015747,1
1394,9.23851,-0.014175415,0.32629395,1
1395,9.262466,-0.021362305,0.26524353,1
1396,9.220566,-0.02494812,0.33467102,1
1397,9.179855,-0.00579834,0.38015747,1
1398,9.188232000000001,-0.0045928955,0.38615417,1
1399,9.227737,0.009765625,0.33946228,1
1400,9.183456,-0.018966675,0.35621643,1
1401,9.130783000000001,0.02053833,0.32510376,1
1402,9.214569000000001,-0.011779785,0.32868958,1
1403,9.236130000000001,-0.015365601000000001,0.29397583,1
1404,9.264847,-0.066848755,0.27482605,1
1405,9.288788,-0.05607605,0.30714417,1
1406,9.25528,-0.016571045,0.2843933,1
1407,9.199005,-0.02255249,0.28320313,1
1408,9.182250999999999,-0.03691101,0.29516602,1
1409,9.167892,-0.016571045,0.30474854,1
1410,9.194229,-0.030929565,0.2843933,1
1411,9.222961,-0.035720825,0.28799438,1
1412,9.23732,-0.04170227,0.27243042,1
1413,9.273239,-0.064453125,0.26643372,1
1414,9.218169999999999,-0.030929565,0.23171997,1
1415,9.222961,-0.02494812,0.27720642,1
1416,9.170288000000001,-0.0021972656,0.28559875,1
1417,9.205002,-0.018966675,0.24009705,1
1418,9.242111,-0.052474976,0.2341156,1
1419,9.263657,-0.0440979,0.26882935,1
1420,9.227737,-0.026138306,0.21496582,1
1421,9.185837,-0.042907715,0.26045227,1
1422,9.173874,-0.03213501,0.24967957,1
1423,9.178664999999999,-0.0105896,0.23770142,1
1424,9.196625,-0.011779785,0.22573853,1
1425,9.246902,-0.009384155,0.17785645,1
1426,9.233734,-0.026138306,0.13595581,1
1427,9.245697,-0.02255249,0.14791870000000001,1
1428,9.248092999999999,-0.047698975,0.19581604,1
1429,9.257675,-0.05368042,0.22813416,1
1430,9.230133,-0.074035645,0.22813416,1
1431,9.137955,-0.03691101,0.31910706,1
1432,9.226547,-0.014175415,0.25686646,1
1433,9.206192,-0.040512085,0.14433289,1
1434,9.239716,-0.04170227,0.20419312,1
1435,9.222961,-0.0440979,0.24967957,1
1436,9.232529,-0.045303345,0.27960205,1
1437,9.254074000000001,-0.02973938,0.25926208,1
1438,9.226547,-0.02973938,0.22453308,1
1439,9.227737,0.0049743652,0.22453308,1
1440,9.21936,-0.02015686,0.17904663,1
1441,9.199005,0.00019836426,0.16827393,1
1442,9.232529,0.007369995,0.20898438,1
1443,9.260071,0.013366699,0.19221497,1
1444,9.273239,-0.023742676,0.27601624,1
1445,9.243300999999999,-0.0440979,0.22813416,1
1446,9.230133,-0.009384155,0.21017456,1
1447,9.201400999999999,0.007369995,0.21257019,1
1448,9.216965,-0.006988525400000001,0.24130249,1
1449,9.220566,-0.011779785,0.24249268,1
1450,9.232529,-0.02255249,0.3131256,1
1451,9.179855,-0.02494812,0.31072998,1
1452,9.189438,-0.0010070800999999999,0.31910706,1
1453,9.202606,-0.040512085,0.29037476,1
1454,9.230133,-0.026138306,0.30235290000000004,1
1455,9.239716,-0.021362305,0.32629395,1
1456,9.21936,-0.023742676,0.2987671,1
1457,9.215775,-0.02734375,0.30593872,1
1458,9.220566,-0.04170227,0.33227540000000005,1
1459,9.218169999999999,-0.040512085,0.31552124,1
1460,9.228943,-0.047698975,0.32150270000000003,1
1461,9.23732,-0.009384155,0.2987671,1
1462,9.2313385,-0.014175415,0.29516602,1
1463,9.254074000000001,-0.05847168,0.29995728,1
1464,9.224152,-0.059661865,0.255661,1
1465,9.200211,-0.026138306,0.30833435,1
1466,9.214569000000001,-0.04170227,0.33227540000000005,1
1467,9.251678,-0.038116455,0.27841187,1
1468,9.221756,-0.047698975,0.29037476,1
1469,9.196625,-0.01776123,0.41607666,1
1470,9.282805999999999,-0.015365601000000001,0.28199768,1
1471,9.248092999999999,-0.016571045,0.30593872,1
1472,9.209793,-0.014175415,0.35621643,1
1473,9.182250999999999,-0.0021972656,0.38015747,1
1474,9.175064,-0.03453064,0.3705902,1
1475,9.21936,-0.05128479,0.33827209999999996,1
1476,9.226547,-0.047698975,0.37538147,1
1477,9.17746,0.0049743652,0.35502625,1
1478,9.212173,0.019348145,0.29995728,1
1479,9.194229,-0.021362305,0.30474854,1
1480,9.250488,-0.006988525400000001,0.32510376,1
1481,9.276825,-0.033325195,0.34544373,1
1482,9.269638,-0.02015686,0.38015747,1
1483,9.207397,-0.066848755,0.36100770000000004,1
1484,9.169083,-0.026138306,0.3717804,1
1485,9.143951,-0.054870605,0.38615417,1
1486,9.17746,-0.042907715,0.43643188,1
1487,9.224152,-0.07641601599999999,0.44001769999999996,1
1488,9.230133,-0.050079346,0.39692688,1
1489,9.232529,-0.069244385,0.39692688,1
1490,9.232529,-0.02973938,0.38494873,1
1491,9.185837,0.013366699,0.429245,1
1492,9.183456,-0.026138306,0.3705902,1
1493,9.15831,-0.02015686,0.35263062,1
1494,9.188232000000001,-0.04170227,0.3598175,1
1495,9.244507,-0.05368042,0.32868958,1
1496,9.233734,-0.074035645,0.40530396,1
1497,9.236130000000001,-0.062057495,0.4184723,1
1498,9.221756,-0.02734375,0.36698914,1
1499,9.226547,-0.0021972656,0.38375854,1
1500,9.208588,-0.021362305,0.41966248,1
1501,9.208588,-0.05128479,0.42565918,1
1502,9.224152,-0.015365601000000001,0.38974000000000003,1
1503,9.234924000000001,-0.04170227,0.429245,1
1504,9.188232000000001,-0.028533936,0.42086792,1
1505,9.209793,-0.02255249,0.41368103,1
1506,9.220566,-0.016571045,0.3933258,1
1507,9.225342,-0.05368042,0.37896729999999995,1
1508,9.182250999999999,-0.030929565,0.45079040000000004,1
1509,9.240905999999999,-0.023742676,0.40888977,1
1510,9.292389,-0.06324768,0.3095398,1
1511,9.194229,-0.018966675,0.39811707,1
1512,9.203796,-0.023742676,0.44839478,1
1513,9.202606,-0.035720825,0.46395874,1
1514,9.207397,-0.05607605,0.4184723,1
1515,9.202606,-0.02015686,0.42326355,1
1516,9.166687,-0.02973938,0.44720459999999995,1
1517,9.182250999999999,-0.07641601599999999,0.45916748,1
1518,9.221756,-0.095581055,0.3705902,1
1519,9.234924000000001,-0.03930664,0.38375854,1
1520,9.262466,-0.040512085,0.38375854,1
1521,9.233734,-0.04170227,0.44122314,1
1522,9.188232000000001,-0.03691101,0.429245,1
1523,9.152328500000001,-0.042907715,0.46875,1
1524,9.183456,-0.04170227,0.47114563,1
1525,9.201400999999999,-0.047698975,0.46994020000000003,1
1526,9.234924000000001,-0.062057495,0.41966248,1
1527,9.23851,-0.05847168,0.3825531,1
1528,9.214569000000001,-0.047698975,0.41607666,1
1529,9.21936,-0.030929565,0.40290833,1
1530,9.196625,-0.02255249,0.39093018,1
1531,9.208588,-0.023742676,0.33467102,1
1532,9.196625,-0.030929565,0.3490448,1
1533,9.21936,-0.052474976,0.36938477,1
1534,9.251678,-0.03930664,0.33348083,1
1535,9.226547,-0.05847168,0.30474854,1
1536,9.206192,-0.026138306,0.3095398,1
1537,9.210983,-0.030929565,0.34065247,1
1538,9.209793,-0.045303345,0.32270813,1
1539,9.234924000000001,-0.05128479,0.31671143,1
1540,9.251678,-0.06564331,0.31791687,1
1541,9.214569000000001,-0.03691101,0.33467102,1
1542,9.227737,-0.02734375,0.34425354,1
1543,9.203796,-0.035720825,0.29995728,1
1544,9.228943,-0.026138306,0.29516602,1
1545,9.181061,-0.047698975,0.30593872,1
1546,9.195419000000001,-0.026138306,0.33227540000000005,1
1547,9.258865,-0.06564331,0.28918457,1
1548,9.200211,-0.08241272,0.34544373,1
1549,9.220566,-0.016571045,0.33348083,1
1550,9.254074000000001,-0.04170227,0.26045227,1
1551,9.232529,-0.042907715,0.23292542,1
1552,9.23732,-0.02255249,0.28678894,1
1553,9.201400999999999,-0.047698975,0.26882935,1
1554,9.215775,-0.04649353,0.26045227,1
1555,9.194229,-0.012969971,0.24009705,1
1556,9.183456,-0.009384155,0.25926208,1
1557,9.227737,-0.02255249,0.20059204,1
1558,9.21936,-0.03691101,0.15270996,1
1559,9.242111,-0.074035645,0.17546082,1
1560,9.266052,-0.069244385,0.18623352,1
1561,9.274429,-0.07641601599999999,0.19102478,1
1562,9.199005,-0.059661865,0.19700623,1
1563,9.197815,-0.033325195,0.22692871,1
1564,9.170288000000001,-0.04649353,0.24728394,1
1565,9.199005,-0.026138306,0.27122498,1
1566,9.215775,-0.028533936,0.26643372,1
1567,9.261261,-0.03930664,0.2736206,1
1568,9.25647,-0.02015686,0.26763916,1
1569,9.261261,-0.047698975,0.25686646,1
1570,9.240905999999999,-0.021362305,0.24009705,1
1571,9.190628,-0.00340271,0.22813416,1
1572,9.199005,-0.035720825,0.26763916,1
1573,9.224152,0.007369995,0.24848938,1
1574,9.23732,-0.028533936,0.20777893,1
1575,9.228943,-0.047698975,0.23770142,1
1576,9.2313385,-0.045303345,0.26524353,1
1577,9.245697,-0.02015686,0.28678894,1
1578,9.181061,0.0049743652,0.36579895,1
1579,9.203796,-0.021362305,0.39453125,1
1580,9.208588,-0.035720825,0.34783936,1
1581,9.206192,-0.028533936,0.3717804,1
1582,9.195419000000001,-0.02734375,0.35742188,1
1583,9.244507,-0.03213501,0.34304809999999997,1
1584,9.261261,-0.05128479,0.29037476,1
1585,9.222961,-0.071640015,0.3705902,1
1586,9.195419000000001,-0.054870605,0.39932249999999997,1
1587,9.251678,-0.026138306,0.30593872,1
1588,9.240905999999999,-0.05368042,0.2736206,1
1589,9.173874,-0.045303345,0.29397583,1
1590,9.170288000000001,-0.015365601000000001,0.3490448,1
1591,9.209793,-0.015365601000000001,0.38015747,1
1592,9.240905999999999,-0.02973938,0.32629395,1
1593,9.232529,-0.015365601000000001,0.28678894,1
1594,9.197815,-0.03930664,0.31072998,1
1595,9.206192,-0.016571045,0.30474854,1
1596,9.189438,-0.05607605,0.28678894,1
1597,9.230133,-0.03213501,0.30833435,1
1598,9.23732,-0.00819397,0.31072998,1
1599,9.25528,-0.0021972656,0.29995728,1
1600,9.216965,-0.05607605,0.35144043,1
1601,9.207397,-0.040512085,0.3538208,1
1602,9.179855,-0.08001709,0.33467102,1
1603,9.212173,-0.064453125,0.38375854,1
1604,9.224152,-0.05607605,0.36340332,1
1605,9.225342,-0.093185425,0.36221313,1
1606,9.230133,-0.026138306,0.3598175,1
1607,9.234924000000001,-0.03691101,0.38375854,1
1608,9.207397,-0.06324768,0.39453125,1
1609,9.213379,-0.040512085,0.39213562,1
1610,9.205002,-0.012969971,0.3885498,1
1611,9.21936,-0.03213501,0.38015747,1
1612,9.184647,-0.066848755,0.38734436,1
1613,9.199005,-0.052474976,0.38375854,1
1614,9.218169999999999,-0.038116455,0.3933258,1
1615,9.220566,-0.016571045,0.36340332,1
1616,9.185837,-0.023742676,0.3885498,1
1617,9.203796,-0.05128479,0.3885498,1
1618,9.196625,-0.016571045,0.42086792,1
1619,9.203796,-0.057266235,0.4005127,1
1620,9.200211,-0.059661865,0.44360352,1
1621,9.264847,-0.033325195,0.41966248,1
1622,9.254074000000001,-0.040512085,0.33706665,1
1623,9.171478,-0.03453064,0.42445374,1
1624,9.175064,0.03730774,0.44360352,1
1625,9.226547,0.009765625,0.36221313,1
1626,9.199005,-0.011779785,0.4040985,1
1627,9.23851,-0.057266235,0.47593690000000005,1
1628,9.252884,-0.078811646,0.508255,1
1629,9.233734,-0.090789795,0.47473145,1
1630,9.191833500000001,-0.06564331,0.43522644,1
1631,9.17746,-0.01776123,0.42086792,1
1632,9.153519000000001,-0.05607605,0.40530396,1
1633,9.182250999999999,-0.03691101,0.41607666,1
1634,9.242111,-0.06324768,0.39572144,1
1635,9.291183,-0.042907715,0.3933258,1
1636,9.280411,-0.08241272,0.38375854,1
1637,9.23851,-0.066848755,0.4112854,1
1638,9.215775,-0.071640015,0.4184723,1
1639,9.179855,-0.04888916,0.46395874,1
1640,9.21936,-0.05607605,0.4112854,1
1641,9.212173,-0.071640015,0.43043518,1
1642,9.210983,-0.01776123,0.38015747,1
1643,9.224152,-0.011779785,0.39093018,1
1644,9.246902,-0.028533936,0.35502625,1
1645,9.242111,-0.030929565,0.4005127,1
1646,9.205002,-0.054870605,0.40888977,1
1647,9.199005,-0.0440979,0.4388275,1
1648,9.187042,-0.026138306,0.42086792,1
1649,9.178664999999999,-0.00579834,0.39932249999999997,1
1650,9.206192,-0.06086731,0.39692688,1
1651,9.218169999999999,-0.05607605,0.3717804,1
1652,9.224152,-0.05847168,0.3598175,1
1653,9.21936,-0.01776123,0.3933258,1
1654,9.226547,-0.009384155,0.3885498,1
1655,9.216965,-0.02255249,0.37298584,1
1656,9.226547,-0.016571045,0.3598175,1
1657,9.200211,-0.015365601000000001,0.37298584,1
1658,9.234924000000001,0.013366699,0.4005127,1
1659,9.226547,-0.006988525400000001,0.38615417,1
1660,9.155914,-0.0105896,0.41726685,1
1661,9.244507,-0.012969971,0.39692688,1
1662,9.189438,0.019348145,0.34544373,1
1663,9.166687,-0.05128479,0.38615417,1
1664,9.207397,-0.083602905,0.3933258,1
1665,9.228943,-0.13867188,0.43043518,1
1666,9.201400999999999,-0.1590271,0.3777771,1
1667,9.210983,-0.105148315,0.40171814,1
1668,9.214569000000001,-0.090789795,0.3310852,1
1669,9.249298,-0.12310791,0.23890686,1
1670,9.243300999999999,-0.112335205,0.22573853,1
1671,9.234924000000001,-0.095581055,0.27122498,1
1672,9.25528,-0.054870605,0.26643372,1
1673,9.272034,-0.038116455,0.25086975,1
1674,9.236130000000001,-0.0045928955,0.22573853,1
1675,9.249298,-0.035720825,0.20898438,1
1676,9.240905999999999,-0.04649353,0.24967957,1
1677,9.226547,-0.038116455,0.27720642,1
1678,9.233734,-0.050079346,0.26045227,1
1679,9.214569000000001,-0.06086731,0.23171997,1
1680,9.199005,-0.07522583,0.26882935,1
1681,9.21936,-0.112335205,0.2628479,1
1682,9.225342,-0.054870605,0.2640381,1
1683,9.203796,-0.07043457,0.23171997,1
1684,9.216965,-0.05368042,0.20538330000000002,1
1685,9.23732,-0.059661865,0.18623352,1
1686,9.248092999999999,-0.04888916,0.29756165,1
1687,9.236130000000001,0.010971068999999998,0.32389832,1
1688,9.267242,-0.054870605,0.32510376,1
1689,9.25528,-0.018966675,0.30833435,1
1690,9.196625,-0.030929565,0.23171997,1
1691,9.161896,-0.066848755,0.25805664,1
1692,9.205002,-0.066848755,0.24848938,1
1693,9.301956,-0.04649353,0.20419312,1
1694,9.281616,-0.102752686,0.2233429,1
1695,9.250488,-0.09916687,0.32868958,1
1696,9.245697,-0.08720398,0.2843933,1
1697,9.218169999999999,-0.07641601599999999,0.25926208,1
1698,9.161896,-0.0440979,0.3538208,1
1699,9.152328500000001,-0.02734375,0.36579895,1
1700,9.164291,-0.02734375,0.37417603,1
1701,9.25528,-0.06086731,0.34664917,1
1702,9.232529,-0.047698975,0.33467102,1
1703,9.226547,-0.071640015,0.2843933,1
1704,9.226547,-0.09197998,0.3143158,1
1705,9.218169999999999,-0.071640015,0.3131256,1
1706,9.230133,-0.07641601599999999,0.3825531,1
1707,9.242111,-0.04888916,0.36221313,1
1708,9.254074000000001,-0.03691101,0.33706665,1
1709,9.244507,-0.00579834,0.26763916,1
1710,9.236130000000001,-0.0440979,0.23532104,1
1711,9.183456,-0.035720825,0.29516602,1
1712,9.178664999999999,-0.05368042,0.37538147,1
1713,9.213379,-0.11114502,0.45199585,1
1714,9.208588,-0.13148499,0.48191833,1
1715,9.221756,-0.06324768,0.46754456,1
1716,9.251678,-0.07043457,0.45199585,1
1717,9.267242,-0.0045928955,0.4184723,1
1718,9.226547,-0.066848755,0.43643188,1
1719,9.193024000000001,-0.066848755,0.4040985,1
1720,9.164291,-0.08958435,0.45797730000000003,1
1721,9.159514999999999,-0.071640015,0.49269104,1
1722,9.187042,-0.054870605,0.46516418,1
1723,9.227737,-0.064453125,0.40888977,1
1724,9.250488,-0.047698975,0.43643188,1
1725,9.23851,-0.030929565,0.49748230000000004,1
1726,9.230133,-0.054870605,0.42445374,1
1727,9.193024000000001,-0.0728302,0.47712708,1
1728,9.153519000000001,-0.045303345,0.5178375,1
1729,9.232529,-0.052474976,0.46156309999999995,1
1730,9.232529,-0.08241272,0.37298584,1
1731,9.201400999999999,-0.09677124,0.44599915,1
1732,9.184647,-0.095581055,0.48789978,1
1733,9.209793,-0.07641601599999999,0.5274048000000001,1
1734,9.21936,-0.1015625,0.49987793,1
1735,9.157119999999999,-0.078811646,0.48670959999999996,1
1736,9.142746,-0.04170227,0.47354126,1
1737,9.189438,-0.026138306,0.49987793,1
1738,9.221756,-0.07641601599999999,0.47114563,1
1739,9.236130000000001,-0.0728302,0.45199585,1
1740,9.275619500000001,-0.08958435,0.46516418,1
1741,9.228943,-0.0728302,0.47473145,1
1742,9.188232000000001,-0.06803894,0.50227356,1
1743,9.184647,-0.04888916,0.5274048000000001,1
1744,9.199005,-0.071640015,0.508255,1
1745,9.191833500000001,-0.03930664,0.51423645,1
1746,9.188232000000001,-0.078811646,0.5166321,1
1747,9.179855,-0.038116455,0.50704956,1
1748,9.207397,-0.06324768,0.54655457,1
1749,9.236130000000001,-0.012969971,0.46875,1
1750,9.210983,-0.07043457,0.53219604,1
1751,9.208588,-0.04649353,0.52142334,1
1752,9.183456,-0.085998535,0.5058594,1
1753,9.195419000000001,-0.02973938,0.5262146,1
1754,9.215775,-0.047698975,0.5381775,1
1755,9.194229,-0.07043457,0.5226135000000001,1
1756,9.21936,-0.054870605,0.5405731,1
1757,9.175064,-0.045303345,0.47833252,1
1758,9.188232000000001,-0.03213501,0.5489501999999999,1
1759,9.194229,-0.03691101,0.53219604,1
1760,9.234924000000001,-0.085998535,0.49269104,1
1761,9.185837,-0.078811646,0.54655457,1
1762,9.153519000000001,-0.054870605,0.5860595999999999,1
1763,9.272034,-0.069244385,0.45558167,1
1764,9.199005,-0.105148315,0.43403625,1
1765,9.17627,-0.088394165,0.5345916999999999,1
1766,9.221756,-0.02973938,0.52142334,1
1767,9.221756,-0.05847168,0.53338623,1
1768,9.201400999999999,-0.04649353,0.5345916999999999,1
1769,9.17627,-0.00340271,0.48191833,1
1770,9.221756,-0.012969971,0.5118408,1
1771,9.224152,-0.050079346,0.49150085,1
1772,9.220566,-0.047698975,0.49269104,1
1773,9.232529,-0.05368042,0.49269104,1
1774,9.232529,-0.0440979,0.47233582,1
1775,9.239716,-0.030929565,0.49150085,1
1776,9.194229,-0.042907715,0.50227356,1
1777,9.183456,-0.054870605,0.49987793,1
1778,9.199005,-0.054870605,0.5094452,1
1779,9.226547,-0.03930664,0.5381775,1
1780,9.197815,-0.090789795,0.48550415,1
1781,9.233734,-0.05128479,0.46276855,1
1782,9.225342,-0.054870605,0.49029540000000005,1
1783,9.209793,-0.050079346,0.51304626,1
1784,9.201400999999999,-0.04649353,0.44720459999999995,1
1785,9.190628,-0.038116455,0.45677185,1
1786,9.196625,-0.02973938,0.45439148,1
1787,9.227737,-0.081207275,0.45558167,1
1788,9.222961,-0.045303345,0.44839478,1
1789,9.208588,-0.045303345,0.42805479999999996,1
1790,9.185837,-0.064453125,0.38734436,1
1791,9.199005,-0.04649353,0.42684937,1
1792,9.207397,-0.04649353,0.44720459999999995,1
1793,9.210983,-0.038116455,0.41726685,1
1794,9.250488,-0.03930664,0.36100770000000004,1
1795,9.240905999999999,-0.05847168,0.35144043,1
1796,9.208588,-0.064453125,0.41607666,1
1797,9.239716,-0.052474976,0.39093018,1
1798,9.201400999999999,-0.05847168,0.31552124,1
1799,9.213379,-0.047698975,0.30116272,1
1800,9.191833500000001,-0.04888916,0.33587646,1
1801,9.2313385,-0.06086731,0.36100770000000004,1
1802,9.215775,-0.059661865,0.3538208,1
1803,9.166687,-0.04170227,0.3598175,1
1804,9.194229,-0.012969971,0.33348083,1
1805,9.214569000000001,-0.038116455,0.24130249,1
1806,9.220566,-0.03930664,0.25686646,1
1807,9.222961,-0.07641601599999999,0.30714417,1
1808,9.286407,-0.06324768,0.27841187,1
1809,9.252884,-0.021362305,0.26045227,1
1810,9.188232000000001,-0.069244385,0.30116272,1
1811,9.206192,-0.03213501,0.31193542,1
1812,9.206192,-0.05368042,0.31072998,1
1813,9.209793,-0.057266235,0.3538208,1
1814,9.227737,-0.02015686,0.36100770000000004,1
1815,9.233734,-0.081207275,0.34065247,1
1816,9.218169999999999,-0.035720825,0.3418579,1
1817,9.244507,-0.069244385,0.3490448,1
1818,9.21936,-0.045303345,0.32987976,1
1819,9.2313385,-0.033325195,0.3095398,1
1820,9.222961,-0.03930664,0.39692688,1
1821,9.17746,-0.033325195,0.3885498,1
1822,9.178664999999999,-0.047698975,0.38375854,1
1823,9.213379,-0.03691101,0.3933258,1
1824,9.216965,-0.04649353,0.30354309999999995,1
1825,9.234924000000001,-0.06564331,0.35861206,1
1826,9.244507,-0.050079346,0.34783936,1
1827,9.225342,-0.015365601000000001,0.34304809999999997,1
1828,9.201400999999999,-0.040512085,0.36100770000000004,1
1829,9.167892,-0.030929565,0.43643188,1
1830,9.262466,-0.057266235,0.3490448,1
1831,9.261261,-0.06803894,0.26882935,1
1832,9.203796,-0.066848755,0.2987671,1
1833,9.205002,-0.047698975,0.39572144,1
1834,9.212173,-0.02255249,0.40530396,1
1835,9.236130000000001,-0.016571045,0.38615417,1
1836,9.189438,-0.052474976,0.39213562,1
1837,9.233734,-0.030929565,0.3777771,1
1838,9.213379,-0.02734375,0.37538147,1
1839,9.197815,-0.04170227,0.36698914,1
1840,9.220566,-0.05368042,0.36698914,1
1841,9.226547,-0.047698975,0.34304809999999997,1
1842,9.234924000000001,-0.045303345,0.33706665,1
1843,9.202606,-0.042907715,0.34664917,1
1844,9.206192,-0.04888916,0.3777771,1
1845,9.202606,-0.059661865,0.3777771,1
1846,9.220566,-0.045303345,0.38615417,1
1847,9.222961,-0.033325195,0.38015747,1
1848,9.246902,-0.035720825,0.38494873,1
1849,9.23732,-0.02015686,0.37417603,1
1850,9.224152,-0.030929565,0.39572144,1
1851,9.222961,-0.033325195,0.38974000000000003,1
1852,9.222961,0.010971068999999998,0.38136292,1
1853,9.207397,-0.03213501,0.3825531,1
1854,9.215775,-0.05368042,0.36579895,1
1855,9.208588,-0.03691101,0.37417603,1
1856,9.203796,-0.05368042,0.3538208,1
1857,9.224152,0.0013885498,0.41726685,1
1858,9.202606,-0.045303345,0.38015747,1
1859,9.216965,-0.02734375,0.41009520000000005,1
1860,9.21936,-0.03453064,0.4112854,1
1861,9.2708435,-0.045303345,0.34425354,1
1862,9.23851,-0.054870605,0.38375854,1
1863,9.182250999999999,-0.05607605,0.42805479999999996,1
1864,9.236130000000001,-0.04649353,0.38734436,1
1865,9.266052,-0.04170227,0.30833435,1
1866,9.232529,-0.050079346,0.31671143,1
1867,9.203796,-0.040512085,0.39213562,1
1868,9.187042,-0.045303345,0.46037292,1
1869,9.205002,-0.07762146,0.43522644,1
1870,9.203796,-0.045303345,0.429245,1
1871,9.151123,-0.052474976,0.41009520000000005,1
1872,9.178664999999999,-0.02734375,0.39572144,1
1873,9.234924000000001,-0.06086731,0.39932249999999997,1
1874,9.236130000000001,-0.054870605,0.38015747,1
1875,9.272034,-0.06086731,0.42086792,1
1876,9.250488,-0.06803894,0.39811707,1
1877,9.157119999999999,-0.021362305,0.40649414,1
1878,9.184647,-0.057266235,0.46037292,1
1879,9.206192,-0.050079346,0.47114563,1
1880,9.221756,-0.071640015,0.41726685,1
1881,9.224152,-0.04649353,0.43403625,1
1882,9.240905999999999,-0.03691101,0.44480896,1
1883,9.207397,-0.018966675,0.47473145,1
1884,9.215775,-0.014175415,0.48670959999999996,1
1885,9.190628,-0.062057495,0.47473145,1
1886,9.214569000000001,-0.03691101,0.4388275,1
1887,9.197815,-0.026138306,0.46635437,1
1888,9.209793,-0.03691101,0.48431396,1
1889,9.191833500000001,-0.033325195,0.429245,1
1890,9.193024000000001,-0.057266235,0.48310852,1
1891,9.207397,-0.059661865,0.52381897,1
1892,9.249298,-0.01776123,0.52142334,1
1893,9.230133,-0.050079346,0.44480896,1
1894,9.197815,-0.035720825,0.51065063,1
1895,9.187042,-0.057266235,0.5166321,1
1896,9.250488,-0.047698975,0.45079040000000004,1
1897,9.203796,-0.05847168,0.46875,1
1898,9.169083,-0.064453125,0.61239624,1
1899,9.245697,-0.028533936,0.53338623,1
1900,9.213379,-0.081207275,0.43164063,1
1901,9.182250999999999,-0.07762146,0.5154419,1
1902,9.188232000000001,-0.023742676,0.5944519,1
1903,9.2313385,-0.05607605,0.5585326999999999,1
1904,9.213379,-0.03691101,0.48789978,1
1905,9.185837,-0.035720825,0.52142334,1
1906,9.182250999999999,0.0037841796999999997,0.5286102,1
1907,9.17627,-0.028533936,0.49508667,1
1908,9.151123,-0.07043457,0.51423645,1
1909,9.190628,-0.03930664,0.47593690000000005,1
1910,9.264847,-0.078811646,0.4388275,1
1911,9.274429,-0.06324768,0.44720459999999995,1
1912,9.230133,-0.047698975,0.48550415,1
1913,9.173874,-0.033325195,0.56451416,1
1914,9.184647,-0.01776123,0.47233582,1
1915,9.171478,-0.045303345,0.49987793,1
1916,9.2313385,-0.06086731,0.49269104,1
1917,9.226547,-0.026138306,0.5274048000000001,1
1918,9.239716,-0.054870605,0.52142334,1
1919,9.232529,-0.04649353,0.4807129,1
1920,9.216965,-0.040512085,0.46156309999999995,1
1921,9.209793,-0.050079346,0.44360352,1
1922,9.232529,-0.074035645,0.42805479999999996,1
1923,9.214569000000001,-0.03453064,0.40888977,1
1924,9.250488,-0.052474976,0.41368103,1
1925,9.193024000000001,-0.0728302,0.44241333,1
1926,9.218169999999999,-0.03691101,0.45318604,1
1927,9.221756,-0.078811646,0.46754456,1
1928,9.225342,-0.052474976,0.45916748,1
1929,9.197815,-0.093185425,0.4328308,1
1930,9.17746,-0.071640015,0.42326355,1
1931,9.205002,-0.04888916,0.47712708,1
1932,9.232529,-0.02973938,0.49029540000000005,1
1933,9.246902,-0.057266235,0.3310852,1
1934,9.207397,-0.05128479,0.40171814,1
1935,9.216965,-0.08720398,0.45318604,1
1936,9.227737,-0.066848755,0.36819458,1
1937,9.207397,-0.04649353,0.40290833,1
1938,9.213379,-0.042907715,0.44839478,1
1939,9.249298,-0.042907715,0.4005127,1
1940,9.244507,-0.069244385,0.3933258,1
1941,9.195419000000001,-0.03930664,0.36100770000000004,1
1942,9.183456,-0.011779785,0.38974000000000003,1
1943,9.184647,-0.06086731,0.36340332,1
1944,9.210983,-0.081207275,0.33348083,1
1945,9.23851,-0.052474976,0.3598175,1
1946,9.294785000000001,-0.04888916,0.3418579,1
1947,9.239716,-0.054870605,0.350235,1
1948,9.155914,-0.071640015,0.33946228,1
1949,9.147537,-0.05847168,0.36100770000000004,1
1950,9.197815,-0.062057495,0.3933258,1
1951,9.250488,-0.074035645,0.36938477,1
1952,9.228943,-0.071640015,0.39692688,1
1953,9.249298,-0.0440979,0.40290833,1
1954,9.224152,-0.03453064,0.40171814,1
1955,9.208588,-0.009384155,0.429245,1
1956,9.189438,-0.0105896,0.44001769999999996,1
1957,9.197815,0.0061798096,0.43043518,1
1958,9.188232000000001,-0.03453064,0.39572144,1
1959,9.230133,-0.05128479,0.36100770000000004,1
1960,9.234924000000001,-0.052474976,0.34664917,1
1961,9.215775,-0.069244385,0.39093018,1
1962,9.242111,-0.057266235,0.4220581,1
1963,9.245697,-0.05607605,0.3705902,1
1964,9.242111,-0.050079346,0.42445374,1
1965,9.233734,-0.05607605,0.42086792,1
1966,9.210983,-0.0440979,0.40171814,1
1967,9.234924000000001,-0.05847168,0.4184723,1
1968,9.240905999999999,-0.028533936,0.40530396,1
1969,9.202606,-0.05128479,0.36819458,1
1970,9.182250999999999,-0.07522583,0.42565918,1
1971,9.272034,-0.033325195,0.35742188,1
1972,9.242111,-0.06324768,0.25086975,1
1973,9.212173,-0.016571045,0.33467102,1
1974,9.212173,-0.02015686,0.47354126,1
1975,9.207397,-0.050079346,0.44122314,1
1976,9.214569000000001,-0.01776123,0.40888977,1
1977,9.200211,-0.040512085,0.3418579,1
1978,9.195419000000001,-0.018966675,0.4112854,1
1979,9.197815,-0.0105896,0.36938477,1
1980,9.196625,-0.02973938,0.39213562,1
1981,9.234924000000001,-0.064453125,0.40769958,1
1982,9.249298,-0.02973938,0.39811707,1
1983,9.25647,-0.01776123,0.41966248,1
1984,9.201400999999999,0.0025787354,0.44599915,1
1985,9.182250999999999,-0.02015686,0.45677185,1
1986,9.165497,-0.06324768,0.46395874,1
1987,9.195419000000001,-0.08001709,0.46156309999999995,1
1988,9.205002,-0.083602905,0.50227356,1
1989,9.233734,-0.038116455,0.46875,1
1990,9.226547,-0.042907715,0.46635437,1
1991,9.240905999999999,-0.050079346,0.44122314,1
1992,9.23732,-0.05128479,0.46276855,1
1993,9.221756,-0.08958435,0.39932249999999997,1
1994,9.196625,-0.069244385,0.43403625,1
1995,9.202606,-0.02494812,0.43164063,1
1996,9.205002,-0.03691101,0.47114563,1
1997,9.213379,-0.06324768,0.44241333,1
1998,9.228943,-0.047698975,0.46037292,1
1999,9.226547,-0.045303345,0.44480896,1
2000,9.197815,-0.042907715,0.43403625,1
2001,9.189438,-0.04649353,0.47593690000000005,1
2002,9.202606,-0.062057495,0.5046692,1
2003,9.242111,-0.04888916,0.44599915,1
2004,9.172684,-0.04170227,0.49150085,1
2005,9.154724,-0.052474976,0.57528687,1
2006,9.273239,-0.00340271,0.45916748,1
2007,9.250488,-0.06324768,0.42086792,1
2008,9.203796,-0.07043457,0.47233582,1
2009,9.206192,-0.05128479,0.5226135000000001,1
2010,9.195419000000001,-0.052474976,0.5190277,1
2011,9.190628,-0.083602905,0.49627686,1
2012,9.213379,-0.04170227,0.49150085,1
2013,9.160706,-0.016571045,0.5058594,1
2014,9.173874,-0.0045928955,0.47114563,1
2015,9.210983,-0.038116455,0.42684937,1
2016,9.263657,-0.033325195,0.49627686,1
2017,9.268448,-0.05128479,0.49987793,1
2018,9.221756,-0.030929565,0.50227356,1
2019,9.187042,-0.030929565,0.47114563,1
2020,9.163101,-0.04170227,0.55015564,1
2021,9.161896,-0.028533936,0.5549469,1
2022,9.221756,-0.050079346,0.5286102,1
2023,9.239716,-0.0440979,0.5369873000000001,1
2024,9.184647,-0.050079346,0.53938293,1
2025,9.212173,-0.050079346,0.57170105,1
2026,9.212173,-0.057266235,0.5441741999999999,1
2027,9.191833500000001,-0.05368042,0.5298004,1
2028,9.210983,-0.040512085,0.51065063,1
2029,9.201400999999999,-0.047698975,0.51065063,1
2030,9.234924000000001,-0.059661865,0.4986725,1
2031,9.232529,-0.071640015,0.48550415,1
2032,9.224152,-0.08720398,0.49748230000000004,1
2033,9.209793,-0.09916687,0.49748230000000004,1
2034,9.221756,-0.08001709,0.52500916,1
2035,9.218169999999999,-0.045303345,0.47952269999999997,1
2036,9.224152,-0.042907715,0.51065063,1
2037,9.263657,-0.069244385,0.44360352,1
2038,9.209793,-0.02255249,0.54776,1
2039,9.191833500000001,-0.01776123,0.6136017,1
2040,9.206192,-0.00579834,0.53578186,1
2041,9.137955,-0.0440979,0.54776,1
2042,9.118805,-0.042907715,0.64352417,1
2043,9.23732,-0.05847168,0.5513458000000001,1
2044,9.254074000000001,-0.07522583,0.47114563,1
2045,9.218169999999999,-0.05368042,0.48910522,1
2046,9.216965,-0.03930664,0.5166321,1
2047,9.236130000000001,-0.04649353,0.53338623,1
2048,9.197815,0.0061798096,0.52142334,1
2049,9.167892,-0.0045928955,0.5154419,1
2050,9.135558999999999,-0.030929565,0.48670959999999996,1
2051,9.208588,0.010971068999999998,0.44720459999999995,1
2052,9.23732,-0.05128479,0.44839478,1
2053,9.29718,-0.05607605,0.45558167,1
2054,9.415695,-0.08241272,0.4388275,1
2055,9.254074000000001,-0.04170227,0.46037292,1
2056,9.070922999999999,-0.00340271,0.48431396,1
2057,9.110428,-0.02973938,0.5190277,1
2058,9.188232000000001,-0.09677124,0.49748230000000004,1
2059,9.227737,-0.12550354,0.5956421,1
2060,9.21936,-0.1015625,0.55374146,1
2061,9.240905999999999,-0.088394165,0.5381775,1
2062,9.187042,-0.078811646,0.5561371,1
2063,9.188232000000001,-0.05368042,0.5489501999999999,1
2064,9.196625,-0.04170227,0.5190277,1
2065,9.196625,-0.08720398,0.49508667,1
2066,9.200211,-0.06324768,0.47233582,1
2067,9.214569000000001,-0.054870605,0.45558167,1
2068,9.232529,-0.100372314,0.46037292,1
2069,9.215775,-0.06803894,0.49150085,1
2070,9.214569000000001,-0.06564331,0.48191833,1
2071,9.224152,-0.074035645,0.5046692,1
2072,9.202606,-0.085998535,0.5010680999999999,1
2073,9.254074000000001,-0.08241272,0.48789978,1
2074,9.213379,-0.097976685,0.42326355,1
2075,9.161896,-0.038116455,0.43522644,1
2076,9.206192,-0.038116455,0.5154419,1
2077,9.227737,-0.07762146,0.44241333,1
2078,9.199005,-0.08958435,0.48310852,1
2079,9.183456,-0.08480835,0.51304626,1
2080,9.250488,-0.078811646,0.40649414,1
2081,9.188232000000001,-0.0728302,0.41368103,1
2082,9.210983,-0.057266235,0.52142334,1
2083,9.23732,-0.07762146,0.5704956,1
2084,9.214569000000001,-0.07522583,0.602829,1
2085,9.2313385,-0.038116455,0.5764923000000001,1
2086,9.2313385,-0.035720825,0.5669098000000001,1
2087,9.188232000000001,-0.02973938,0.53100586,1
2088,9.201400999999999,-0.069244385,0.5166321,1
2089,9.187042,-0.08958435,0.54655457,1
2090,9.224152,-0.08480835,0.61479187,1
2091,9.285202,-0.112335205,0.6495055999999999,1
2092,9.269638,-0.057266235,0.6052246,1
2093,9.165497,-0.05128479,0.58247375,1
2094,9.142746,-0.01776123,0.5633239999999999,1
2095,9.17746,-0.052474976,0.6064148,1
2096,9.199005,-0.081207275,0.62916565,1
2097,9.239716,-0.0728302,0.64352417,1
2098,9.224152,-0.090789795,0.5968323,1
2099,9.242111,-0.0728302,0.61958313,1
2100,9.227737,-0.08958435,0.6459198,1
2101,9.202606,-0.06086731,0.65908813,1
2102,9.193024000000001,-0.074035645,0.57888794,1
2103,9.188232000000001,-0.05847168,0.63394165,1
2104,9.181061,-0.038116455,0.6255646,1
2105,9.181061,-0.07641601599999999,0.6746521,1
2106,9.224152,-0.100372314,0.70098877,1
2107,9.228943,-0.093185425,0.642334,1
2108,9.201400999999999,-0.090789795,0.6566925,1
2109,9.197815,-0.035720825,0.64352417,1
2110,9.202606,-0.026138306,0.71655273,1
2111,9.216965,-0.02973938,0.6710663,1
2112,9.221756,-0.042907715,0.6710663,1
2113,9.159514999999999,-0.095581055,0.7512665,1
2114,9.249298,-0.13269043,0.68782043,1
2115,9.201400999999999,-0.13029480000000002,0.66148376,1
2116,9.17746,-0.100372314,0.6483154000000001,1
2117,9.210983,-0.07641601599999999,0.7345123,1
2118,9.216965,-0.06324768,0.75006104,1
2119,9.170288000000001,-0.07043457,0.8135071,1
2120,9.166687,-0.050079346,0.7333069000000001,1
2121,9.15831,-0.083602905,0.72013855,1
2122,9.179855,-0.1015625,0.75245667,1
2123,9.200211,-0.107543945,0.74168396,1
2124,9.193024000000001,-0.11592102,0.73809814,1
2125,9.257675,-0.069244385,0.76802063,1
2126,9.245697,-0.0728302,0.78956604,1
2127,9.188232000000001,-0.09437561,0.80513,1
2128,9.164291,-0.06086731,0.80513,1
2129,9.142746,-0.10635376,0.80752563,1
2130,9.193024000000001,-0.085998535,0.8039398,1
2131,9.193024000000001,-0.12908936,0.8338623,1
2132,9.194229,-0.08720398,0.8147125,1
2133,9.166687,-0.07641601599999999,0.8218994000000001,1
2134,9.207397,-0.105148315,0.82429504,1
2135,9.203796,-0.12908936,0.80513,1
2136,9.202606,-0.090789795,0.7931670999999999,1
2137,9.189438,-0.08720398,0.7931670999999999,1
2138,9.215775,-0.090789795,0.80633545,1
2139,9.172684,-0.095581055,0.8422394,1
2140,9.193024000000001,-0.11592102,0.80633545,1
2141,9.205002,-0.08480835,0.8254851999999999,1
2142,9.23732,-0.105148315,0.8254851999999999,1
2143,9.226547,-0.102752686,0.83625793,1
2144,9.191833500000001,-0.09197998,0.8326720999999999,1
2145,9.190628,-0.105148315,0.8518219000000001,1
2146,9.183456,-0.11592102,0.78479004,1
2147,9.165497,-0.112335205,0.8482360999999999,1
2148,9.197815,-0.09677124,0.91526794,1
2149,9.23732,-0.102752686,0.81710815,1
2150,9.179855,-0.09916687,0.7464751999999999,1
2151,9.167892,-0.06564331,0.79556274,1
2152,9.188232000000001,-0.05847168,0.9416046,1
2153,9.201400999999999,-0.095581055,0.97631836,1
2154,9.187042,-0.117126465,0.91526794,1
2155,9.166687,-0.09677124,0.89012146,1
2156,9.118805,-0.09916687,0.9320221,1
2157,9.153519000000001,-0.10874939,0.96315,1
2158,9.184647,-0.114730835,0.90449524,1
2159,9.195419000000001,-0.14106749999999998,0.8709716999999999,1
2160,9.252884,-0.14465332,0.90808105,1
2161,9.2313385,-0.11352539,0.93681335,1
2162,9.173874,-0.102752686,0.9104767,1
2163,9.137955,-0.13269043,0.94400024,1
2164,9.137955,-0.14225769,0.9679413,1
2165,9.146347,-0.13986206,1.0134277,1
2166,9.146347,-0.16619873,1.018219,1
2167,9.151123,-0.15542603,1.0014648000000002,1
2168,9.182250999999999,-0.112335205,0.9822998,1
2169,9.175064,-0.12789917,0.9918823,1
2170,9.188232000000001,-0.13269043,0.9882965,1
2171,9.149933,-0.107543945,0.95835876,1
2172,9.216965,-0.14704895,0.9380188,1
2173,9.178664999999999,-0.08001709,0.9272461,1
2174,9.14035,-0.13029480000000002,0.9499816999999999,1
2175,9.062546000000001,-0.13388062,0.939209,1
2176,9.051772999999999,-0.13508606,0.98709106,1
2177,9.318726,-0.210495,0.86738586,1
2178,9.3498535,-0.16021729,0.8087310999999999,1
2179,9.048172000000001,-0.050079346,0.87815857,1
2180,9.173874,-0.006988525400000001,0.8410492,1
2181,9.303162,-0.119522095,0.8338623,1
2182,9.191833500000001,-0.23085022,1.0062408,1
2183,9.189438,-0.1590271,0.98709106,1
2184,9.181061,-0.1015625,0.8422394,1
2185,9.076903999999999,-0.1015625,0.8769530999999999,1
2186,9.090073,-0.071640015,0.8314666999999999,1
2187,9.148727000000001,-0.10874939,0.87457275,1
2188,9.233734,-0.15184021,0.8625946,1
2189,9.234924000000001,-0.08480835,0.87934875,1
2190,9.196625,-0.1015625,0.80033875,1
2191,9.157119999999999,-0.097976685,0.8135071,1
2192,9.230133,-0.081207275,0.75605774,1
2193,9.23732,-0.1590271,0.74528503,1
2194,9.214569000000001,-0.14944458,0.8314666999999999,1
2195,9.170288000000001,-0.13029480000000002,0.8123169,1
2196,9.182250999999999,-0.09437561,0.7823944,1
2197,9.2313385,-0.11831665,0.7728119000000001,1
2198,9.208588,-0.102752686,0.7859802,1
2199,9.149933,-0.105148315,0.83506775,1
2200,9.193024000000001,-0.13867188,0.87934875,1
2201,9.164291,-0.15184021,0.85780334,1
2202,9.154724,-0.14585876,0.8949127,1
2203,9.155914,-0.109939575,0.8614044,1
2204,9.200211,-0.14944458,0.8230896000000001,1
2205,9.201400999999999,-0.10874939,0.8230896000000001,1
2206,9.151123,-0.13748169,0.8123169,1
2207,9.193024000000001,-0.13269043,0.7823944,1
2208,9.233734,-0.13986206,0.7117614999999999,1
2209,9.197815,-0.12310791,0.73928833,1
2210,9.221756,-0.093185425,0.6674651999999999,1
2211,9.208588,-0.112335205,0.6758423000000001,1
2212,9.122391,-0.045303345,0.68782043,1
2213,9.205002,-0.095581055,0.69140625,1
2214,9.300766000000001,-0.12071228,0.68782043,1
2215,9.228943,-0.17338562,0.7069701999999999,1
2216,9.141556,-0.14346313,0.74887085,1
2217,9.228943,-0.14225769,0.68063354,1
2218,9.125992,-0.12669373,0.6938019,1
2219,9.153519000000001,-0.12550354,0.7321167,1
2220,9.21936,-0.13986206,0.70817566,1
2221,9.221756,-0.13269043,0.74168396,1
2222,9.221756,-0.11114502,0.7345123,1
2223,9.201400999999999,-0.090789795,0.7069701999999999,1
2224,9.163101,-0.07641601599999999,0.7177429,1
2225,9.203796,-0.05607605,0.686615,1
2226,9.195419000000001,-0.081207275,0.71295166,1
2227,9.230133,-0.09677124,0.74168396,1
2228,9.236130000000001,-0.069244385,0.73091125,1
2229,9.197815,-0.09916687,0.70578,1
2230,9.185837,-0.109939575,0.71055603,1
2231,9.187042,-0.107543945,0.721344,1
2232,9.187042,-0.105148315,0.77879333,1
2233,9.203796,-0.13029480000000002,0.7464751999999999,1
2234,9.209793,-0.090789795,0.72612,1
2235,9.185837,-0.117126465,0.7440796,1
2236,9.216965,-0.100372314,0.7069701999999999,1
2237,9.233734,-0.10635376,0.7368927,1
2238,9.184647,-0.09677124,0.6782379,1
2239,9.169083,-0.112335205,0.71295166,1
2240,9.195419000000001,-0.10874939,0.70217896,1
2241,9.210983,-0.114730835,0.6782379,1
2242,9.236130000000001,-0.121917725,0.7333069000000001,1
2243,9.209793,-0.07522583,0.6842345999999999,1
2244,9.182250999999999,-0.07762146,0.71055603,1
2245,9.193024000000001,-0.074035645,0.71894836,1
2246,9.221756,-0.078811646,0.71655273,1
2247,9.196625,-0.1015625,0.6830291999999999,1
2248,9.149933,-0.083602905,0.74168396,1
2249,9.173874,-0.08480835,0.74887085,1
2250,9.258865,-0.090789795,0.6447295999999999,1
2251,9.170288000000001,-0.117126465,0.6447295999999999,1
2252,9.185837,-0.07043457,0.7345123,1
2253,9.220566,-0.04649353,0.7835846,1
2254,9.206192,-0.06564331,0.79914856,1
2255,9.185837,-0.090789795,0.74887085,1
2256,9.169083,-0.09437561,0.7464751999999999,1
2257,9.151123,-0.08241272,0.7225342,1
2258,9.17746,-0.08958435,0.7225342,1
2259,9.191833500000001,-0.11114502,0.7117614999999999,1
2260,9.25528,-0.14465332,0.69859314,1
2261,9.2708435,-0.1590271,0.70817566,1
2262,9.199005,-0.17936707,0.7249298000000001,1
2263,9.182250999999999,-0.12908936,0.69740295,1
2264,9.189438,-0.12071228,0.75605774,1
2265,9.199005,-0.14825439999999998,0.80513,1
2266,9.200211,-0.114730835,0.80633545,1
2267,9.182250999999999,-0.08480835,0.78118896,1
2268,9.207397,-0.07522583,0.8135071,1
2269,9.17746,-0.035720825,0.77401733,1
2270,9.21936,-0.097976685,0.77401733,1
2271,9.222961,-0.078811646,0.7799988,1
2272,9.199005,-0.124313354,0.75605774,1
2273,9.169083,-0.13508606,0.76683044,1
2274,9.164291,-0.13148499,0.7428894,1
2275,9.187042,-0.19374084,0.7033844,1
2276,9.182250999999999,-0.18536377,0.69140625,1
2277,9.232529,-0.18415833,0.70817566,1
2278,9.220566,-0.15184021,0.74528503,1
2279,9.215775,-0.13748169,0.7763977,1
2280,9.234924000000001,-0.13388062,0.70098877,1
2281,9.170288000000001,-0.12908936,0.7572479,1
2282,9.12001,-0.13867188,0.8614044,1
2283,9.207397,-0.1015625,0.8530120999999999,1
2284,9.210983,-0.07043457,0.75845337,1
2285,9.153519000000001,-0.066848755,0.74768066,1
2286,9.190628,-0.08001709,0.80633545,1
2287,9.178664999999999,-0.085998535,0.8661804,1
2288,9.181061,-0.07522583,0.8506316999999999,1
2289,9.188232000000001,-0.11114502,0.7967529000000001,1
2290,9.152328500000001,-0.062057495,0.7692260999999999,1
2291,9.170288000000001,-0.081207275,0.8015441999999999,1
2292,9.207397,-0.08720398,0.75245667,1
2293,9.199005,-0.078811646,0.77041626,1
2294,9.233734,-0.12550354,0.7716217,1
2295,9.228943,-0.12071228,0.74528503,1
2296,9.181061,-0.121917725,0.78956604,1
2297,9.155914,-0.109939575,0.7716217,1
2298,9.157119999999999,-0.12908936,0.75605774,1
2299,9.195419000000001,-0.13627625,0.8218994000000001,1
2300,9.21936,-0.11831665,0.7716217,1
2301,9.222961,-0.08241272,0.7536621,1
2302,9.205002,-0.04649353,0.80752563,1
2303,9.165497,-0.09437561,0.76802063,1
2304,9.160706,-0.08480835,0.78956604,1
2305,9.148727000000001,-0.1015625,0.7763977,1
2306,9.190628,-0.10395813,0.75605774,1
2307,9.233734,-0.12310791,0.75964355,1
2308,9.232529,-0.121917725,0.7859802,1
2309,9.207397,-0.105148315,0.7967529000000001,1
2310,9.197815,-0.107543945,0.7931670999999999,1
2311,9.178664999999999,-0.093185425,0.79556274,1
2312,9.149933,-0.08720398,0.82907104,1
2313,9.15831,-0.08958435,0.82788086,1
2314,9.225342,-0.09437561,0.7692260999999999,1
2315,9.191833500000001,-0.08241272,0.7979584,1
2316,9.200211,-0.08241272,0.8123169,1
2317,9.239716,-0.06324768,0.8195038,1
2318,9.175064,-0.07641601599999999,0.7512665,1
2319,9.094864,-0.07641601599999999,0.86499023,1
2320,9.195419000000001,-0.07641601599999999,0.80513,1
2321,9.194229,-0.071640015,0.7177429,1
2322,9.159514999999999,-0.12669373,0.72612,1
2323,9.209793,-0.083602905,0.78479004,1
2324,9.17746,-0.105148315,0.7967529000000001,1
2325,9.173874,-0.10874939,0.79556274,1
2326,9.195419000000001,-0.0728302,0.7464751999999999,1
2327,9.190628,-0.059661865,0.7368927,1
2328,9.149933,-0.08958435,0.7763977,1
2329,9.193024000000001,-0.114730835,0.74887085,1
2330,9.214569000000001,-0.08958435,0.721344,1
2331,9.266052,-0.07043457,0.7440796,1
2332,9.246902,-0.08958435,0.7823944,1
2333,9.191833500000001,-0.11831665,0.7548523,1
2334,9.143951,-0.11592102,0.74528503,1
2335,9.154724,-0.107543945,0.79196167,1
2336,9.17746,-0.11592102,0.8027344,1
2337,9.205002,-0.11352539,0.8111267,1
2338,9.232529,-0.1015625,0.7859802,1
2339,9.206192,-0.11592102,0.8254851999999999,1
2340,9.172684,-0.119522095,0.76322937,1
2341,9.193024000000001,-0.097976685,0.8147125,1
2342,9.194229,-0.11831665,0.8015441999999999,1
2343,9.21936,-0.13748169,0.7728119000000001,1
2344,9.165497,-0.1590271,0.73928833,1
2345,9.171478,-0.13269043,0.7428894,1
2346,9.203796,-0.10395813,0.7512665,1
2347,9.202606,-0.14704895,0.7728119000000001,1
2348,9.206192,-0.12071228,0.66867065,1
2349,9.197815,-0.117126465,0.72013855,1
2350,9.179855,-0.090789795,0.70578,1
2351,9.199005,-0.08480835,0.72732544,1
2352,9.17746,-0.083602905,0.7225342,1
2353,9.154724,-0.11352539,0.71655273,1
2354,9.193024000000001,-0.112335205,0.7321167,1
2355,9.201400999999999,-0.102752686,0.69859314,1
2356,9.160706,-0.107543945,0.7117614999999999,1
2357,9.189438,-0.112335205,0.76683044,1
2358,9.249298,-0.12071228,0.65789795,1
2359,9.191833500000001,-0.095581055,0.63275146,1
2360,9.188232000000001,-0.08480835,0.64352417,1
2361,9.194229,-0.05368042,0.6997833000000001,1
2362,9.215775,-0.07043457,0.7177429,1
2363,9.184647,-0.07522583,0.6746521,1
2364,9.155914,-0.07762146,0.6351471,1
2365,9.206192,-0.052474976,0.60043335,1
2366,9.215775,-0.07522583,0.6088104,1
2367,9.260071,-0.07641601599999999,0.6279602,1
2368,9.267242,-0.074035645,0.63035583,1
2369,9.274429,-0.08001709,0.59085083,1
2370,9.169083,-0.078811646,0.5848694000000001,1
2371,9.118805,-0.03691101,0.6052246,1
2372,9.167892,-0.107543945,0.642334,1
2373,9.220566,-0.09916687,0.5992279,1
2374,9.25528,-0.13627625,0.5884552,1
2375,9.263657,-0.13748169,0.61958313,1
2376,9.221756,-0.11114502,0.59085083,1
2377,9.202606,-0.0728302,0.6363373000000001,1
2378,9.185837,-0.066848755,0.6459198,1
2379,9.17627,-0.07762146,0.6483154000000001,1
2380,9.191833500000001,-0.078811646,0.6315613,1
2381,9.209793,-0.09197998,0.6207885999999999,1
2382,9.239716,-0.08241272,0.6471100000000001,1
2383,9.214569000000001,-0.117126465,0.67225647,1
2384,9.125992,-0.10874939,0.6830291999999999,1
2385,9.155914,-0.100372314,0.7033844,1
2386,9.205002,-0.124313354,0.71655273,1
2387,9.23732,-0.10874939,0.6854248000000001,1
2388,9.203796,-0.090789795,0.65789795,1
2389,9.185837,-0.07762146,0.6243744000000001,1
2390,9.187042,-0.102752686,0.6459198,1
2391,9.242111,-0.102752686,0.6447295999999999,1
2392,9.161896,-0.052474976,0.6818390000000001,1
2393,9.169083,-0.071640015,0.7033844,1
2394,9.268448,-0.08480835,0.65071106,1
2395,9.221756,-0.097976685,0.5740967,1
2396,9.214569000000001,-0.07043457,0.6542969,1
2397,9.189438,-0.095581055,0.69859314,1
2398,9.196625,-0.10874939,0.70817566,1
2399,9.207397,-0.09916687,0.72612,1
2400,9.197815,-0.09437561,0.67344666,1
2401,9.187042,-0.074035645,0.6830291999999999,1
2402,9.166687,-0.107543945,0.65908813,1
2403,9.17627,-0.08958435,0.66867065,1
2404,9.227737,-0.11352539,0.66986084,1
2405,9.263657,-0.097976685,0.7117614999999999,1
2406,9.215775,-0.08241272,0.7225342,1
2407,9.15831,-0.097976685,0.6950073,1
2408,9.188232000000001,-0.083602905,0.70936584,1
2409,9.222961,-0.093185425,0.70217896,1
2410,9.193024000000001,-0.08480835,0.72372437,1
2411,9.17627,-0.11592102,0.71894836,1
2412,9.175064,-0.105148315,0.7117614999999999,1
2413,9.178664999999999,-0.10874939,0.70098877,1
2414,9.220566,-0.06564331,0.6961975,1
2415,9.194229,-0.074035645,0.6674651999999999,1
2416,9.212173,-0.069244385,0.6674651999999999,1
2417,9.213379,-0.07762146,0.66267395,1
2418,9.178664999999999,-0.06564331,0.6842345999999999,1
2419,9.185837,-0.08241272,0.7117614999999999,1
2420,9.203796,-0.102752686,0.69140625,1
2421,9.222961,-0.11114502,0.66867065,1
2422,9.230133,-0.11831665,0.68782043,1
2423,9.246902,-0.11592102,0.67944336,1
2424,9.173874,-0.090789795,0.70098877,1
2425,9.182250999999999,-0.05607605,0.70936584,1
2426,9.225342,-0.095581055,0.68063354,1
2427,9.171478,-0.09437561,0.70936584,1
2428,9.134369,-0.064453125,0.7428894,1
2429,9.274429,-0.097976685,0.66986084,1
2430,9.245697,-0.0728302,0.5980376999999999,1
2431,9.17746,-0.06803894,0.69140625,1
2432,9.191833500000001,-0.071640015,0.7572479,1
2433,9.212173,-0.081207275,0.7859802,1
2434,9.212173,-0.102752686,0.76683044,1
2435,9.179855,-0.07043457,0.72013855,1
2436,9.164291,-0.05847168,0.6938019,1
2437,9.214569000000001,-0.07641601599999999,0.7225342,1
2438,9.202606,-0.11352539,0.66148376,1
2439,9.21936,-0.10635376,0.69740295,1
2440,9.246902,-0.09437561,0.70578,1
2441,9.225342,-0.08720398,0.70098877,1
2442,9.196625,-0.074035645,0.6950073,1
2443,9.189438,-0.074035645,0.69740295,1
2444,9.181061,-0.11831665,0.7153473000000001,1
2445,9.209793,-0.10395813,0.7225342,1
2446,9.208588,-0.093185425,0.7428894,1
2447,9.207397,-0.088394165,0.75245667,1
2448,9.188232000000001,-0.09437561,0.7117614999999999,1
2449,9.193024000000001,-0.069244385,0.71894836,1
2450,9.207397,-0.059661865,0.68063354,1
2451,9.182250999999999,-0.066848755,0.6842345999999999,1
2452,9.179855,-0.093185425,0.69140625,1
2453,9.189438,-0.0728302,0.69740295,1
2454,9.184647,-0.095581055,0.72972107,1
2455,9.205002,-0.097976685,0.72732544,1
2456,9.221756,-0.09916687,0.7117614999999999,1
2457,9.207397,-0.07043457,0.68063354,1
2458,9.184647,-0.09197998,0.73928833,1
2459,9.17746,-0.06803894,0.71295166,1
2460,9.203796,-0.05847168,0.6950073,1
2461,9.221756,-0.109939575,0.6351471,1
2462,9.169083,-0.105148315,0.66267395,1
2463,9.169083,-0.097976685,0.7536621,1
2464,9.286407,-0.10635376,0.70578,1
2465,9.233734,-0.093185425,0.63993835,1
2466,9.145142,-0.090789795,0.7033844,1
2467,9.214569000000001,-0.08480835,0.7692260999999999,1
2468,9.193024000000001,-0.11114502,0.7835846,1
2469,9.190628,-0.097976685,0.77760315,1
2470,9.190628,-0.074035645,0.68063354,1
2471,9.172684,-0.047698975,0.6997833000000001,1
2472,9.159514999999999,-0.08720398,0.6710663,1
2473,9.216965,-0.069244385,0.6950073,1
2474,9.213379,-0.074035645,0.72372437,1
2475,9.224152,-0.097976685,0.7177429,1
2476,9.257675,-0.112335205,0.67944336,1
2477,9.226547,-0.105148315,0.6938019,1
2478,9.187042,-0.07641601599999999,0.64352417,1
2479,9.159514999999999,-0.09437561,0.6758423000000001,1
2480,9.15831,-0.090789795,0.74887085,1
2481,9.188232000000001,-0.09677124,0.67225647,1
2482,9.151123,-0.093185425,0.6997833000000001,1
2483,9.165497,-0.0728302,0.70578,1
2484,9.195419000000001,-0.08720398,0.67944336,1
2485,9.199005,-0.085998535,0.67344666,1
2486,9.197815,-0.050079346,0.7141571,1
2487,9.221756,-0.10395813,0.65789795,1
2488,9.206192,-0.03930664,0.6351471,1
2489,9.193024000000001,-0.07641601599999999,0.65789795,1
2490,9.205002,-0.102752686,0.63035583,1
2491,9.187042,-0.100372314,0.6842345999999999,1
2492,9.202606,-0.13508606,0.60762024,1
2493,9.234924000000001,-0.1015625,0.5872649999999999,1
2494,9.195419000000001,-0.095581055,0.5980376999999999,1
2495,9.246902,-0.06803894,0.5956421,1
2496,9.266052,-0.064453125,0.5573273,1
2497,9.2313385,-0.07522583,0.5561371,1
2498,9.171478,-0.050079346,0.6064148,1
2499,9.212173,-0.085998535,0.53100586,1
2500,9.181061,-0.08241272,0.44480896,1
2501,9.224152,-0.07762146,0.4220581,1
2502,9.261261,-0.10874939,0.47952269999999997,1
2503,9.236130000000001,-0.038116455,0.45199585,1
2504,9.222961,0.012161255,0.44599915,1
2505,9.2313385,0.093566895,0.40769958,1
2506,9.169083,0.040893555,0.48789978,1
2507,9.135558999999999,0.010971068999999998,0.58966064,1
2508,9.122391,-0.09197998,0.6746521,1
2509,9.118805,-0.19732666,0.8422394,1
2510,9.157119999999999,-0.3074646,0.79196167,1
2511,9.25528,-0.34098816,0.70936584,1
2512,9.242111,-0.25360107,0.6495055999999999,1
2513,9.244507,-0.17098999,0.5441741999999999,1
2514,9.220566,-0.15663147,0.51065063,1
2515,9.178664999999999,-0.14944458,0.58128357,1
2516,9.153519000000001,-0.15423584,0.6471100000000001,1
2517,9.188232000000001,-0.16261292,0.5704956,1
2518,9.228943,-0.14944458,0.5118408,1
2519,9.260071,-0.17936707,0.49388123,1
2520,9.278015,-0.22366333,0.52500916,1
2521,9.261261,-0.23085022,0.52500916,1
2522,9.2313385,-0.17817688,0.5298004,1
2523,9.189438,-0.13986206,0.54655457,1
2524,9.166687,-0.13269043,0.57888794,1
2525,9.207397,-0.13627625,0.5585326999999999,1
2526,9.201400999999999,-0.117126465,0.53578186,1
2527,9.163101,-0.1015625,0.57289124,1
2528,9.160706,-0.03453064,0.63275146,1
2529,9.218169999999999,-0.033325195,0.6136017,1
2530,9.200211,-0.06803894,0.56451416,1
2531,9.175064,-0.07522583,0.6447295999999999,1
2532,9.239716,-0.09916687,0.56451416,1
2533,9.243300999999999,-0.07762146,0.48789978,1
2534,9.178664999999999,-0.066848755,0.5190277,1
2535,9.202606,-0.05847168,0.5513458000000001,1
2536,9.207397,-0.090789795,0.5513458000000001,1
2537,9.191833500000001,-0.05128479,0.49987793,1
2538,9.216965,-0.069244385,0.50227356,1
2539,9.199005,-0.08001709,0.53578186,1
2540,9.227737,-0.090789795,0.5058594,1
2541,9.213379,-0.074035645,0.5118408,1
2542,9.210983,-0.097976685,0.5118408,1
2543,9.201400999999999,-0.11352539,0.5860595999999999,1
2544,9.23851,-0.12908936,0.56451416,1
2545,9.218169999999999,-0.12071228,0.5956421,1
2546,9.232529,-0.13388062,0.5956421,1
2547,9.194229,-0.13748169,0.6136017,1
2548,9.188232000000001,-0.14585876,0.63993835,1
2549,9.190628,-0.14225769,0.6207885999999999,1
2550,9.189438,-0.112335205,0.59324646,1
2551,9.172684,-0.10874939,0.62316895,1
2552,9.221756,-0.097976685,0.63275146,1
2553,9.191833500000001,-0.109939575,0.6088104,1
2554,9.203796,-0.12789917,0.5884552,1
2555,9.216965,-0.12310791,0.5860595999999999,1
2556,9.197815,-0.12071228,0.6243744000000001,1
2557,9.185837,-0.11831665,0.5956421,1
2558,9.189438,-0.13148499,0.6100005999999999,1
2559,9.208588,-0.13388062,0.58966064,1
2560,9.212173,-0.12789917,0.5704956,1
2561,9.206192,-0.093185425,0.56451416,1
2562,9.207397,-0.13269043,0.58128357,1
2563,9.266052,-0.14585876,0.58966064,1
2564,9.239716,-0.08958435,0.51065063,1
2565,9.163101,-0.081207275,0.61239624,1
2566,9.268448,-0.11114502,0.5561371,1
2567,9.213379,-0.105148315,0.5190277,1
2568,9.153519000000001,-0.093185425,0.5693054,1
2569,9.179855,-0.02255249,0.65071106,1
2570,9.218169999999999,-0.081207275,0.68063354,1
2571,9.220566,-0.074035645,0.63394165,1
2572,9.188232000000001,-0.033325195,0.6555023,1
2573,9.172684,0.00019836426,0.6459198,1
2574,9.159514999999999,0.010971068999999998,0.666275,1
2575,9.170288000000001,-0.03930664,0.686615,1
2576,9.208588,-0.06086731,0.69740295,1
2577,9.226547,-0.09677124,0.7572479,1
2578,9.264847,-0.16381836,0.6961975,1
2579,9.244507,-0.13029480000000002,0.6997833000000001,1
2580,9.240905999999999,-0.121917725,0.6555023,1
2581,9.182250999999999,-0.12071228,0.70217896,1
2582,9.137955,-0.14106749999999998,0.6997833000000001,1
2583,9.178664999999999,-0.16859436,0.72372437,1
2584,9.196625,-0.105148315,0.686615,1
2585,9.2313385,-0.10395813,0.65190125,1
2586,9.21936,-0.09437561,0.6650696,1
2587,9.172684,-0.05368042,0.70098877,1
2588,9.17746,-0.09437561,0.7177429,1
2589,9.226547,-0.08001709,0.74168396,1
2590,9.234924000000001,-0.08001709,0.7859802,1
2591,9.121201,-0.09437561,0.7967529000000001,1
2592,9.165497,-0.08480835,0.8111267,1
2593,9.206192,-0.093185425,0.7835846,1
2594,9.210983,-0.11352539,0.78118896,1
2595,9.179855,-0.10874939,0.8015441999999999,1
2596,9.15831,-0.09437561,0.8542175,1
2597,9.185837,-0.1015625,0.8111267,1
2598,9.242111,-0.124313354,0.78118896,1
2599,9.201400999999999,-0.12669373,0.74528503,1
2600,9.205002,-0.14704895,0.7644348000000001,1
2601,9.249298,-0.121917725,0.67944336,1
2602,9.15831,-0.08241272,0.6447295999999999,1
2603,9.187042,-0.0440979,0.66986084,1
2604,9.190628,0.03251648,0.7512665,1
2605,9.188232000000001,0.03251648,0.7428894,1
2606,9.221756,-0.02015686,0.71295166,1
2607,9.25528,-0.030929565,0.6997833000000001,1
2608,9.218169999999999,-0.012969971,0.7117614999999999,1
2609,9.187042,-0.05128479,0.72732544,1
2610,9.182250999999999,-0.064453125,0.74168396,1
2611,9.224152,-0.09677124,0.8218994000000001,1
2612,9.221756,-0.12310791,0.8410492,1
2613,9.181061,-0.081207275,0.8218994000000001,1
2614,9.153519000000001,-0.10395813,0.78118896,1
2615,9.164291,-0.13627625,0.75006104,1
2616,9.216965,-0.20451355,0.7572479,1
2617,9.182250999999999,-0.23564148,0.8518219000000001,1
2618,9.179855,-0.21887207,0.90449524,1
2619,9.173874,-0.1590271,0.87457275,1
2620,9.147537,-0.15303039999999998,0.9116820999999999,1
2621,9.137955,-0.16500854,0.9092865,1
2622,9.153519000000001,-0.20330810000000002,0.87815857,1
2623,9.117614999999999,-0.21528625,0.82429504,1
2624,9.172684,-0.16619873,0.7907715,1
2625,9.197815,-0.13029480000000002,0.69021606,1
2626,9.243300999999999,-0.09197998,0.55255127,1
2627,9.263657,-0.05847168,0.57289124,1
2628,9.21936,-0.05368042,0.5693054,1
2629,9.203796,-0.050079346,0.60162354,1
2630,9.224152,-0.088394165,0.58366394,1
2631,9.267242,-0.13627625,0.56092834,1
2632,9.312744,-0.14225769,0.52500916,1
2633,9.236130000000001,-0.16859436,0.46875,1
2634,9.141556,-0.19134521,0.57289124,1
2635,9.130783000000001,-0.19493103,0.6255646,1
2636,9.190628,-0.14225769,0.55015564,1
2637,9.206192,-0.12789917,0.49150085,1
2638,9.185837,-0.16979979999999997,0.5298004,1
2639,9.232529,-0.210495,0.63275146,1
2640,9.279221000000001,-0.23564148,0.6267699999999999,1
2641,9.23851,-0.28231812,0.68063354,1
2642,9.17746,-0.35055542,0.6064148,1
2643,9.137955,-0.289505,0.62316895,1
2644,9.085281,-0.31584167,0.6650696,1
2645,9.130783000000001,-0.29429626,0.6830291999999999,1
2646,9.213379,-0.19732666,0.6243744000000001,1
2647,9.262466,-0.114730835,0.6531066999999999,1
2648,9.214569000000001,-0.107543945,0.6279602,1
2649,9.181061,-0.17817688,0.6447295999999999,1
2650,9.154724,-0.15303039999999998,0.7141571,1
2651,9.14035,-0.23683167,0.76802063,1
2652,9.106842,-0.26914978,0.9308318999999999,1
2653,9.188232000000001,-0.27394104,1.018219,1
2654,9.291183,-0.18415833,0.91885376,1
2655,9.363022,-0.074035645,0.69140625,1
2656,9.321121,0.055252075,0.4986725,1
2657,9.194229,0.036102295,0.5693054,1
2658,9.062546000000001,-0.02494812,0.62316895,1
2659,9.0577545,-0.11831665,0.61239624,1
2660,9.145142,-0.109939575,0.52142334,1
2661,9.208588,-0.07522583,0.52500916,1
2662,9.21936,-0.054870605,0.55015564,1
2663,9.261261,-0.062057495,0.64352417,1
2664,9.325911999999999,-0.085998535,0.7345123,1
2665,9.300766000000001,-0.09197998,0.8302765,1
2666,9.148727000000001,-0.107543945,0.8506316999999999,1
2667,9.115219,-0.14585876,0.8697815000000001,1
2668,9.094864,-0.28831482,0.84584045,1
2669,9.06015,-0.50738525,0.9116820999999999,1
2670,9.108032000000001,-0.67497253,0.83984375,1
2671,9.220566,-0.67736816,0.7117614999999999,1
2672,9.292389,-0.39485168,0.62197876,1
2673,9.25647,-0.19134521,0.6375427,1
2674,9.213379,-0.074035645,0.5968323,1
2675,9.203796,-0.071640015,0.50227356,1
2676,9.212173,-0.13269043,0.45439148,1
2677,9.154724,-0.088394165,0.49627686,1
2678,9.206192,-0.16859436,0.5381775,1
2679,9.276825,-0.20930481,0.52142334,1
2680,9.321121,-0.2799225,0.5274048000000001,1
2681,9.2708435,-0.3002777,0.4986725,1
2682,9.234924000000001,-0.26437378,0.52142334,1
2683,9.207397,-0.22247314,0.5740967,1
2684,9.196625,-0.21647644,0.5944519,1
2685,9.166687,-0.15184021,0.61479187,1
2686,9.164291,-0.15184021,0.61479187,1
2687,9.143951,-0.22007751,0.6447295999999999,1
2688,9.187042,-0.33499146,0.6926116999999999,1
2689,9.358231,-0.43554688,0.8518219000000001,1
2690,9.340271000000001,-0.37570190000000003,0.7153473000000001,1
2691,9.272034,-0.5384979,0.43522644,1
2692,9.191833500000001,-0.48582458,0.3310852,1
2693,9.149933,-0.50138855,0.56211853,1
2694,9.196625,-0.49301147,0.6471100000000001,1
2695,9.287598,-0.31225586,0.5693054,1
2696,9.288788,0.13546753,0.44480896,1
2697,9.224152,0.38685608,0.43403625,1
2698,9.031417999999999,0.2348175,0.53578186,1
2699,8.98114,-0.112335205,0.5944519,1
2700,9.155914,-0.30506897,0.5944519,1
2701,9.216965,-0.30148315,0.65190125,1
2702,9.135558999999999,-0.15423584,0.7321167,1
2703,9.0793,-0.093185425,0.8769530999999999,1
2704,9.114014,-0.12789917,0.9799041999999999,1
2705,9.091277999999999,-0.102752686,1.0170288,1
2706,9.111618,-0.02494812,1.0158234,1
2707,9.17746,0.05406189,0.97273254,1
2708,9.25528,0.064834595,0.8218994000000001,1
2709,9.4096985,-0.0105896,0.66986084,1
2710,9.322311000000001,-0.100372314,0.54655457,1
2711,9.17746,-0.062057495,0.5369873000000001,1
2712,9.109222,0.009765625,0.43643188,1
2713,9.109222,0.107925415,0.31072998,1
2714,9.163101,0.21566772,0.21257019,1
2715,9.251678,0.2803192,0.117996216,1
2716,9.31752,0.26594543,0.067718506,1
2717,9.311539,0.21806335,0.048568726,1
2718,9.29837,0.16539001,0.048568726,1
2719,9.322311000000001,0.043289185,0.036590576,1
2720,9.293579,-0.009384155,0.023422241,1
2721,9.209793,0.012161255,0.041381836,1
2722,9.200211,0.033706665,0.05215454,1
2723,9.193024000000001,0.08279419,0.04975891,1
2724,9.240905999999999,0.11631775,0.101242065,1
2725,9.242111,0.081588745,0.15270996,1
2726,9.268448,-0.012969971,0.14074707,1
2727,9.254074000000001,-0.02255249,0.20179749,1
2728,9.202606,-0.059661865,0.20777893,1
2729,9.234924000000001,-0.08480835,0.2736206,1
2730,9.268448,-0.107543945,0.29637146,1
2731,9.3103485,-0.11114502,0.31671143,1
2732,9.250488,-0.10874939,0.35621643,1
2733,9.21936,-0.10874939,0.4388275,1
2734,9.224152,-0.05847168,0.4005127,1
2735,9.208588,-0.069244385,0.36221313,1
2736,9.135558999999999,-0.0105896,0.40769958,1
2737,9.218169999999999,-0.062057495,0.4388275,1
2738,9.184647,-0.06803894,0.45318604,1
2739,9.200211,-0.090789795,0.45079040000000004,1
2740,9.208588,-0.05847168,0.42565918,1
2741,9.164291,-0.05368042,0.43762207,1
2742,9.131973,-0.05847168,0.41249084,1
2743,9.187042,-0.071640015,0.41966248,1
2744,9.234924000000001,-0.08720398,0.43643188,1
2745,9.246902,-0.121917725,0.42326355,1
2746,9.245697,-0.10395813,0.429245,1
2747,9.191833500000001,-0.12669373,0.43403625,1
2748,9.167892,-0.112335205,0.45318604,1
2749,9.189438,-0.15663147,0.47114563,1
2750,9.214569000000001,-0.16261292,0.5094452,1
2751,9.205002,-0.12071228,0.5262146,1
2752,9.203796,-0.095581055,0.52142334,1
2753,9.208588,-0.07522583,0.5190277,1
2754,9.197815,-0.066848755,0.5202179,1
2755,9.200211,-0.074035645,0.53938293,1
2756,9.212173,-0.062057495,0.5226135000000001,1
2757,9.201400999999999,-0.042907715,0.56092834,1
2758,9.172684,-0.0045928955,0.6638794,1
2759,9.179855,-0.00340271,0.6710663,1
2760,9.195419000000001,0.010971068999999998,0.6255646,1
2761,9.199005,-0.0045928955,0.5262146,1
2762,9.25647,-0.074035645,0.4328308,1
2763,9.245697,-0.11831665,0.4388275,1
2764,9.189438,-0.09437561,0.47473145,1
2765,9.195419000000001,-0.052474976,0.49150085,1
2766,9.243300999999999,-0.03453064,0.36938477,1
2767,9.254074000000001,-0.028533936,0.32510376,1
2768,9.215775,0.0025787354,0.32389832,1
2769,9.273239,-0.0105896,0.3418579,1
2770,9.319916000000001,-0.00340271,0.29397583,1
2771,9.225342,-0.00819397,0.41726685,1
2772,9.203796,-0.009384155,0.4112854,1
2773,9.222961,-0.00819397,0.48789978,1
2774,9.226547,0.05166626,0.46754456,1
2775,9.17627,-0.0045928955,0.45079040000000004,1
2776,9.185837,0.028915405,0.46395874,1
2777,9.17627,0.019348145,0.5094452,1
2778,9.207397,-0.021362305,0.51423645,1
2779,9.220566,-0.028533936,0.5262146,1
2780,9.222961,-0.02015686,0.5381775,1
2781,9.222961,-0.057266235,0.53338623,1
2782,9.195419000000001,-0.05607605,0.53219604,1
2783,9.191833500000001,-0.083602905,0.5381775,1
2784,9.183456,-0.07641601599999999,0.5154419,1
2785,9.166687,-0.08958435,0.5740967,1
2786,9.209793,-0.066848755,0.5944519,1
2787,9.205002,-0.07043457,0.58366394,1
2788,9.205002,-0.05368042,0.58966064,1
2789,9.209793,-0.04170227,0.5381775,1
2790,9.190628,-0.0045928955,0.5872649999999999,1
2791,9.15831,0.0025787354,0.5992279,1
2792,9.190628,0.05166626,0.55255127,1
2793,9.115219,0.09954834,0.5597229,1
2794,9.093674,0.07202148400000001,0.56811523,1
2795,9.142746,0.02293396,0.6710663,1
2796,9.21936,-0.11592102,0.67944336,1
2797,9.343857,-0.23683167,0.642334,1
2798,9.301956,-0.3182373,0.59324646,1
2799,9.228943,-0.20930481,0.61120605,1
2800,9.161896,-0.12310791,0.6279602,1
2801,9.123596000000001,-0.05368042,0.6650696,1
2802,9.100845,-0.052474976,0.721344,1
2803,9.155914,-0.07762146,0.65190125,1
2804,9.175064,-0.18415833,0.6459198,1
2805,9.170288000000001,-0.2607727,0.7967529000000001,1
2806,9.281616,-0.28471375,0.68782043,1
2807,9.236130000000001,-0.27394104,0.65071106,1
2808,9.181061,-0.26556396,0.7368927,1
2809,9.14035,-0.15663147,0.80033875,1
2810,9.155914,-0.16021729,0.8123169,1
2811,9.142746,-0.095581055,0.79196167,1
2812,9.202606,-0.114730835,0.6746521,1
2813,9.213379,-0.023742676,0.61239624,1
2814,9.251678,-0.02494812,0.5058594,1
2815,9.248092999999999,0.04447937,0.43643188,1
2816,9.206192,0.07321167,0.43762207,1
2817,9.190628,0.09715271,0.43164063,1
2818,9.191833500000001,0.17736816,0.44960022,1
2819,9.164291,0.22164917,0.45439148,1
2820,9.202606,0.16778564,0.38615417,1
2821,9.194229,0.16539001,0.46395874,1
2822,9.208588,0.100753784,0.46875,1
2823,9.227737,0.03730774,0.508255,1
2824,9.222961,0.04808044400000001,0.48550415,1
2825,9.142746,0.088775635,0.49987793,1
2826,9.154724,0.09475708,0.4807129,1
2827,9.157119999999999,0.091171265,0.46875,1
2828,9.200211,0.12588501,0.46875,1
2829,9.191833500000001,0.09954834,0.43762207,1
2830,9.194229,0.13067627,0.44839478,1
2831,9.222961,0.057647705,0.47833252,1
2832,9.250488,0.05166626,0.38015747,1
2833,9.273239,0.033706665,0.34664917,1
2834,9.240905999999999,0.06602478,0.3598175,1
2835,9.169083,0.08758545,0.4040985,1
2836,9.172684,0.03970337,0.39213562,1
2837,9.230133,0.026535034,0.37538147,1
2838,9.246902,-0.011779785,0.36221313,1
2839,9.194229,-0.03453064,0.41726685,1
